timestamp_s,accel_x,accel_y,accel_z,gyro_x,gyro_y,gyro_z
0.000000,-0.831055,0.268555,9.795898,-0.218506,0.603760,0.017334
0.009320,-0.831055,0.274414,9.816406,-0.297363,0.656250,-0.026367
0.018641,-0.820312,0.262695,9.808594,-0.244873,0.656250,-0.026367
0.027961,-0.830078,0.268555,9.800781,-0.262451,0.638916,0.017334
0.037282,-0.831055,0.266602,9.817383,-0.253662,0.621338,0.043701
0.046602,-0.823242,0.277344,9.804688,-0.279785,0.621338,-0.043945
0.055923,-0.826172,0.277344,9.795898,-0.279785,0.612549,-0.017578
0.065243,-0.826172,0.275391,9.792969,-0.244873,0.647705,-0.035156
0.074563,-0.826172,0.274414,9.818359,-0.236084,0.691406,-0.026367
0.083884,-0.819336,0.266602,9.806641,-0.244873,0.656250,-0.061279
0.093204,-0.829102,0.266602,9.802734,-0.341064,0.621338,-0.035156
0.102525,-0.819336,0.280273,9.806641,-0.288574,0.630127,-0.017578
0.111845,-0.820312,0.266602,9.801758,-0.218506,0.673828,-0.026367
0.121166,-0.815430,0.270508,9.811523,-0.244873,0.673828,-0.043945
0.130486,-0.820312,0.274414,9.799805,-0.332275,0.630127,-0.043945
0.139806,-0.826172,0.269531,9.811523,-0.306152,0.586426,0.000000
0.149127,-0.825195,0.279297,9.806641,-0.218506,0.656250,-0.008789
0.158447,-0.833984,0.274414,9.799805,-0.236084,0.665039,-0.052734
0.167768,-0.834961,0.270508,9.808594,-0.253662,0.595215,-0.113770
0.177088,-0.828125,0.273438,9.804688,-0.288574,0.665039,-0.052734
0.186408,-0.833008,0.277344,9.806641,-0.227295,0.656250,-0.008789
0.195729,-0.850586,0.277344,9.801758,-0.227295,0.638916,-0.008789
0.205049,-0.838867,0.267578,9.796875,-0.271240,0.621338,-0.026367
0.214370,-0.833984,0.275391,9.811523,-0.262451,0.577637,0.017334
0.223690,-0.828125,0.268555,9.800781,-0.332275,0.665039,-0.026367
0.233011,-0.826172,0.273438,9.802734,-0.306152,0.656250,0.000000
0.242331,-0.834961,0.274414,9.808594,-0.209961,0.691406,0.008545
0.251651,-0.833984,0.267578,9.806641,-0.262451,0.647705,-0.035156
0.260972,-0.836914,0.280273,9.802734,-0.209961,0.647705,-0.008789
0.270292,-0.833008,0.273438,9.816406,-0.332275,0.630127,-0.008789
0.279613,-0.831055,0.278320,9.811523,-0.262451,0.586426,0.000000
0.288933,-0.823242,0.275391,9.799805,-0.236084,0.603760,-0.043945
0.298254,-0.825195,0.275391,9.800781,-0.244873,0.542725,-0.035156
0.307574,-0.828125,0.269531,9.826172,-0.253662,0.612549,-0.035156
0.316894,-0.821289,0.268555,9.792969,-0.323730,0.586426,-0.043945
0.326215,-0.826172,0.270508,9.811523,-0.358643,0.665039,-0.061279
0.335535,-0.833984,0.274414,9.813477,-0.253662,0.621338,-0.052734
0.344856,-0.824219,0.264648,9.806641,-0.314941,0.630127,-0.043945
0.354176,-0.825195,0.268555,9.802734,-0.341064,0.603760,-0.035156
0.363497,-0.830078,0.263672,9.802734,-0.314941,0.525146,0.000000
0.372817,-0.826172,0.268555,9.806641,-0.306152,0.638916,-0.008789
0.382137,-0.829102,0.268555,9.802734,-0.306152,0.630127,0.017334
0.391458,-0.833008,0.269531,9.812500,-0.253662,0.621338,-0.017578
0.400778,-0.825195,0.269531,9.812500,-0.288574,0.621338,-0.008789
0.410099,-0.831055,0.269531,9.808594,-0.297363,0.647705,-0.008789
0.419419,-0.833008,0.266602,9.810547,-0.218506,0.673828,-0.035156
0.428739,-0.828125,0.267578,9.816406,-0.323730,0.638916,-0.078857
0.438060,-0.833984,0.268555,9.804688,-0.253662,0.621338,0.000000
0.447380,-0.835938,0.262695,9.813477,-0.288574,0.665039,0.034912
0.456701,-0.831055,0.267578,9.804688,-0.271240,0.595215,-0.008789
0.466021,-0.833008,0.274414,9.805664,-0.349854,0.638916,-0.061279
0.475342,-0.836914,0.268555,9.789062,-0.297363,0.621338,-0.078857
0.484662,-0.841797,0.278320,9.813477,-0.341064,0.638916,-0.017578
0.493982,-0.830078,0.272461,9.799805,-0.306152,0.612549,-0.026367
0.503303,-0.828125,0.275391,9.807617,-0.236084,0.621338,-0.070068
0.512623,-0.839844,0.275391,9.804688,-0.288574,0.673828,-0.061279
0.521944,-0.831055,0.280273,9.807617,-0.341064,0.586426,0.000000
0.531264,-0.833008,0.280273,9.806641,-0.323730,0.621338,0.034912
0.540585,-0.833984,0.267578,9.811523,-0.341064,0.665039,0.008545
0.549905,-0.821289,0.277344,9.805664,-0.341064,0.691406,-0.017578
0.559225,-0.830078,0.278320,9.805664,-0.323730,0.708984,0.052490
0.568546,-0.831055,0.280273,9.802734,-0.306152,0.656250,-0.043945
0.577866,-0.826172,0.272461,9.804688,-0.279785,0.656250,-0.026367
0.587187,-0.821289,0.269531,9.806641,-0.227295,0.612549,0.000000
0.596507,-0.826172,0.264648,9.802734,-0.244873,0.603760,-0.035156
0.605828,-0.831055,0.267578,9.808594,-0.332275,0.603760,-0.043945
0.615148,-0.825195,0.272461,9.813477,-0.297363,0.630127,-0.052734
0.624468,-0.823242,0.270508,9.810547,-0.236084,0.638916,0.000000
0.633789,-0.825195,0.269531,9.812500,-0.314941,0.586426,-0.017578
0.643109,-0.820312,0.267578,9.816406,-0.288574,0.595215,-0.008789
0.652430,-0.825195,0.259766,9.810547,-0.271240,0.577637,0.034912
0.661750,-0.821289,0.267578,9.801758,-0.314941,0.542725,0.026123
0.671070,-0.826172,0.267578,9.811523,-0.244873,0.647705,-0.052734
0.680391,-0.833984,0.261719,9.806641,-0.279785,0.621338,-0.061279
0.689711,-0.829102,0.263672,9.795898,-0.332275,0.595215,-0.052734
0.699032,-0.829102,0.264648,9.807617,-0.244873,0.621338,-0.035156
0.708352,-0.830078,0.267578,9.804688,-0.227295,0.595215,0.000000
0.717673,-0.821289,0.263672,9.808594,-0.183594,0.568848,-0.052734
0.726993,-0.828125,0.264648,9.807617,-0.271240,0.638916,-0.035156
0.736313,-0.830078,0.263672,9.812500,-0.279785,0.630127,-0.026367
0.745634,-0.833984,0.275391,9.807617,-0.323730,0.595215,-0.026367
0.754954,-0.823242,0.269531,9.801758,-0.279785,0.577637,-0.035156
0.764275,-0.826172,0.274414,9.799805,-0.253662,0.560059,-0.052734
0.773595,-0.830078,0.264648,9.802734,-0.253662,0.551270,-0.070068
0.782916,-0.820312,0.272461,9.804688,-0.306152,0.603760,-0.035156
0.792236,-0.835938,0.269531,9.810547,-0.209961,0.577637,-0.070068
0.801556,-0.830078,0.269531,9.806641,-0.244873,0.682617,-0.043945
0.810877,-0.821289,0.269531,9.801758,-0.262451,0.630127,0.000000
0.820197,-0.833984,0.277344,9.827148,-0.323730,0.673828,-0.052734
0.829518,-0.826172,0.282227,9.802734,-0.271240,0.603760,-0.070068
0.838838,-0.833008,0.282227,9.807617,-0.174805,0.586426,-0.008789
0.848159,-0.830078,0.277344,9.805664,-0.271240,0.542725,-0.087646
0.857479,-0.823242,0.279297,9.808594,-0.271240,0.612549,-0.096436
0.866799,-0.821289,0.269531,9.815430,-0.279785,0.647705,-0.026367
0.876120,-0.825195,0.267578,9.808594,-0.209961,0.568848,0.008545
0.885440,-0.833984,0.268555,9.806641,-0.288574,0.568848,0.017334
0.894761,-0.830078,0.272461,9.810547,-0.288574,0.638916,0.043701
0.904081,-0.825195,0.278320,9.808594,-0.323730,0.638916,-0.035156
0.913401,-0.828125,0.280273,9.807617,-0.253662,0.638916,-0.070068
0.922722,-0.825195,0.270508,9.807617,-0.271240,0.630127,-0.017578
0.932042,-0.826172,0.275391,9.802734,-0.262451,0.612549,-0.026367
0.941363,-0.821289,0.267578,9.792969,-0.358643,0.638916,-0.035156
0.950683,-0.830078,0.269531,9.808594,-0.271240,0.612549,0.017334
0.960004,-0.828125,0.274414,9.805664,-0.236084,0.586426,-0.043945
0.969324,-0.820312,0.269531,9.804688,-0.288574,0.568848,-0.008789
0.978644,-0.823242,0.272461,9.808594,-0.279785,0.621338,0.000000
0.987965,-0.826172,0.264648,9.800781,-0.314941,0.638916,-0.008789
0.997285,-0.824219,0.259766,9.808594,-0.323730,0.638916,-0.017578
1.006606,-0.829102,0.272461,9.811523,-0.253662,0.691406,-0.026367
1.015926,-0.833008,0.266602,9.811523,-0.323730,0.638916,0.000000
1.025247,-0.834961,0.262695,9.796875,-0.358643,0.603760,-0.017578
1.034567,-0.834961,0.261719,9.811523,-0.306152,0.612549,-0.008789
1.043887,-0.836914,0.268555,9.812500,-0.279785,0.638916,-0.026367
1.053208,-0.826172,0.270508,9.801758,-0.332275,0.621338,0.026123
1.062528,-0.833008,0.274414,9.807617,-0.306152,0.656250,0.017334
1.071849,-0.833008,0.278320,9.804688,-0.236084,0.621338,-0.026367
1.081169,-0.817383,0.270508,9.801758,-0.218506,0.612549,0.017334
1.090490,-0.831055,0.275391,9.819336,-0.236084,0.630127,-0.096436
1.099810,-0.824219,0.269531,9.810547,-0.262451,0.630127,-0.070068
1.109130,-0.828125,0.268555,9.800781,-0.262451,0.656250,-0.035156
1.118451,-0.833984,0.274414,9.813477,-0.306152,0.691406,-0.061279
1.127771,-0.829102,0.267578,9.805664,-0.271240,0.656250,-0.070068
1.137092,-0.821289,0.274414,9.802734,-0.288574,0.647705,-0.026367
1.146412,-0.826172,0.278320,9.810547,-0.349854,0.691406,-0.017578
1.155732,-0.821289,0.284180,9.818359,-0.262451,0.603760,-0.052734
1.165053,-0.830078,0.286133,9.806641,-0.262451,0.630127,-0.052734
1.174373,-0.835938,0.278320,9.808594,-0.262451,0.612549,0.000000
1.183694,-0.833008,0.283203,9.808594,-0.253662,0.638916,0.017334
1.193014,-0.828125,0.278320,9.818359,-0.279785,0.595215,-0.043945
1.202335,-0.825195,0.273438,9.802734,-0.288574,0.568848,0.017334
1.211655,-0.829102,0.268555,9.796875,-0.306152,0.533936,-0.008789
1.220975,-0.836914,0.273438,9.816406,-0.297363,0.630127,0.017334
1.230296,-0.821289,0.273438,9.815430,-0.279785,0.691406,-0.043945
1.239616,-0.824219,0.262695,9.792969,-0.236084,0.656250,-0.078857
1.248937,-0.830078,0.270508,9.819336,-0.306152,0.603760,-0.026367
1.258257,-0.826172,0.268555,9.800781,-0.236084,0.638916,0.000000
1.267578,-0.820312,0.267578,9.805664,-0.288574,0.673828,-0.131348
1.276898,-0.825195,0.267578,9.800781,-0.209961,0.638916,-0.052734
1.286218,-0.825195,0.272461,9.807617,-0.297363,0.638916,-0.026367
1.295539,-0.826172,0.268555,9.805664,-0.297363,0.656250,0.008545
1.304859,-0.829102,0.269531,9.804688,-0.244873,0.533936,-0.087646
1.314180,-0.826172,0.268555,9.805664,-0.253662,0.603760,-0.070068
1.323500,-0.830078,0.264648,9.802734,-0.209961,0.656250,-0.070068
1.332821,-0.828125,0.261719,9.806641,-0.271240,0.612549,0.000000
1.342141,-0.826172,0.269531,9.801758,-0.306152,0.630127,0.000000
1.351461,-0.828125,0.268555,9.808594,-0.262451,0.656250,-0.061279
1.360782,-0.833984,0.274414,9.799805,-0.236084,0.656250,0.000000
1.370102,-0.829102,0.267578,9.804688,-0.183594,0.586426,0.026123
1.379423,-0.823242,0.274414,9.811523,-0.227295,0.665039,-0.043945
1.388743,-0.828125,0.274414,9.811523,-0.262451,0.673828,-0.043945
1.398064,-0.836914,0.278320,9.811523,-0.201172,0.621338,-0.061279
1.407384,-0.834961,0.269531,9.815430,-0.288574,0.647705,-0.026367
1.416704,-0.830078,0.262695,9.808594,-0.306152,0.630127,-0.026367
1.426025,-0.830078,0.278320,9.815430,-0.288574,0.612549,-0.008789
1.435345,-0.828125,0.272461,9.806641,-0.244873,0.603760,0.017334
1.444666,-0.838867,0.282227,9.808594,-0.139893,0.603760,0.026123
1.453986,-0.820312,0.269531,9.806641,-0.218506,0.665039,0.034912
1.463306,-0.831055,0.272461,9.804688,-0.279785,0.673828,-0.070068
1.472627,-0.835938,0.277344,9.810547,-0.279785,0.700195,-0.035156
1.481947,-0.829102,0.275391,9.807617,-0.236084,0.673828,-0.026367
1.491268,-0.843750,0.280273,9.804688,-0.218506,0.673828,-0.035156
1.500588,-0.829102,0.280273,9.800781,-0.306152,0.673828,-0.026367
1.509909,-0.826172,0.269531,9.796875,-0.236084,0.630127,-0.017578
1.519229,-0.829102,0.264648,9.816406,-0.279785,0.682617,-0.026367
1.528549,-0.825195,0.274414,9.811523,-0.288574,0.717529,0.000000
1.537870,-0.823242,0.275391,9.805664,-0.253662,0.630127,0.043701
1.547190,-0.826172,0.272461,9.808594,-0.341064,0.568848,-0.078857
1.556511,-0.818359,0.267578,9.805664,-0.314941,0.577637,-0.035156
1.565831,-0.828125,0.277344,9.811523,-0.297363,0.630127,-0.026367
1.575152,-0.829102,0.262695,9.805664,-0.244873,0.647705,0.017334
1.584472,-0.830078,0.272461,9.806641,-0.271240,0.630127,-0.070068
1.593792,-0.824219,0.268555,9.806641,-0.314941,0.665039,-0.096436
1.603113,-0.829102,0.268555,9.816406,-0.271240,0.630127,-0.061279
1.612433,-0.824219,0.269531,9.800781,-0.323730,0.586426,-0.087646
1.621754,-0.830078,0.269531,9.807617,-0.349854,0.665039,-0.087646
1.631074,-0.825195,0.267578,9.822266,-0.297363,0.665039,-0.043945
1.640395,-0.825195,0.264648,9.801758,-0.253662,0.630127,-0.043945
1.649715,-0.830078,0.263672,9.808594,-0.271240,0.647705,-0.043945
1.659035,-0.821289,0.268555,9.819336,-0.253662,0.638916,-0.017578
1.668356,-0.829102,0.257812,9.797852,-0.288574,0.577637,-0.078857
1.677676,-0.838867,0.257812,9.802734,-0.279785,0.568848,-0.043945
1.686997,-0.828125,0.263672,9.813477,-0.279785,0.595215,0.008545
1.696317,-0.826172,0.262695,9.794922,-0.288574,0.621338,-0.008789
1.705637,-0.830078,0.275391,9.806641,-0.271240,0.647705,-0.113770
1.714958,-0.825195,0.269531,9.805664,-0.236084,0.586426,-0.070068
1.724278,-0.833008,0.267578,9.794922,-0.192383,0.595215,-0.026367
1.733599,-0.829102,0.272461,9.802734,-0.288574,0.647705,0.000000
1.742919,-0.825195,0.273438,9.819336,-0.262451,0.612549,-0.026367
1.752240,-0.824219,0.269531,9.804688,-0.244873,0.621338,-0.070068
1.761560,-0.834961,0.277344,9.805664,-0.271240,0.595215,-0.035156
1.770880,-0.821289,0.274414,9.792969,-0.323730,0.665039,-0.052734
1.780201,-0.830078,0.272461,9.808594,-0.262451,0.638916,-0.043945
1.789521,-0.833984,0.283203,9.799805,-0.279785,0.551270,-0.035156
1.798842,-0.834961,0.269531,9.790039,-0.306152,0.568848,0.017334
1.808162,-0.834961,0.273438,9.806641,-0.271240,0.638916,-0.017578
1.817483,-0.833008,0.268555,9.823242,-0.271240,0.621338,-0.070068
1.826803,-0.828125,0.275391,9.799805,-0.271240,0.665039,-0.008789
1.836123,-0.824219,0.269531,9.795898,-0.288574,0.630127,-0.052734
1.845444,-0.833008,0.268555,9.822266,-0.332275,0.568848,-0.008789
1.854764,-0.833984,0.274414,9.806641,-0.341064,0.560059,-0.017578
1.864085,-0.825195,0.268555,9.799805,-0.271240,0.603760,-0.035156
1.873405,-0.821289,0.274414,9.815430,-0.314941,0.647705,-0.043945
1.882726,-0.823242,0.275391,9.805664,-0.314941,0.630127,0.052490
1.892046,-0.824219,0.268555,9.795898,-0.288574,0.647705,-0.008789
1.901366,-0.836914,0.272461,9.811523,-0.288574,0.638916,-0.035156
1.910687,-0.825195,0.266602,9.812500,-0.279785,0.682617,-0.035156
1.920007,-0.825195,0.272461,9.804688,-0.262451,0.656250,0.000000
1.929328,-0.831055,0.270508,9.808594,-0.297363,0.638916,-0.017578
1.938648,-0.839844,0.273438,9.811523,-0.288574,0.586426,-0.026367
1.947968,-0.830078,0.273438,9.805664,-0.314941,0.612549,-0.026367
1.957289,-0.828125,0.266602,9.811523,-0.279785,0.630127,-0.061279
1.966609,-0.833984,0.275391,9.801758,-0.236084,0.665039,-0.026367
1.975930,-0.835938,0.268555,9.800781,-0.288574,0.656250,-0.061279
1.985250,-0.833008,0.261719,9.804688,-0.297363,0.621338,0.000000
1.994571,-0.833008,0.269531,9.804688,-0.288574,0.603760,-0.035156
2.003891,-0.833008,0.267578,9.810547,-0.236084,0.656250,-0.043945
2.013211,-0.831055,0.269531,9.792969,-0.279785,0.630127,-0.061279
2.022532,-0.823242,0.266602,9.796875,-0.358643,0.638916,-0.070068
2.031852,-0.829102,0.262695,9.802734,-0.271240,0.700195,-0.035156
2.041173,-0.824219,0.278320,9.813477,-0.271240,0.647705,-0.078857
2.050493,-0.828125,0.273438,9.802734,-0.349854,0.630127,-0.061279
2.059814,-0.823242,0.283203,9.796875,-0.349854,0.647705,-0.008789
2.069134,-0.829102,0.280273,9.808594,-0.253662,0.647705,-0.035156
2.078454,-0.829102,0.272461,9.804688,-0.209961,0.595215,0.008545
2.087775,-0.823242,0.279297,9.810547,-0.244873,0.630127,-0.017578
2.097095,-0.828125,0.262695,9.805664,-0.262451,0.647705,-0.035156
2.106416,-0.831055,0.278320,9.797852,-0.236084,0.621338,-0.061279
2.115736,-0.831055,0.272461,9.804688,-0.297363,0.630127,0.000000
2.125057,-0.830078,0.273438,9.815430,-0.323730,0.630127,-0.052734
2.134377,-0.834961,0.277344,9.807617,-0.314941,0.630127,-0.035156
2.143697,-0.823242,0.278320,9.801758,-0.244873,0.647705,-0.052734
2.153018,-0.828125,0.284180,9.804688,-0.306152,0.656250,-0.008789
2.162338,-0.828125,0.279297,9.806641,-0.288574,0.621338,-0.043945
2.171659,-0.823242,0.269531,9.797852,-0.297363,0.603760,-0.035156
2.180979,-0.830078,0.275391,9.812500,-0.244873,0.647705,-0.061279
2.190299,-0.830078,0.264648,9.804688,-0.306152,0.673828,0.000000
2.199620,-0.825195,0.280273,9.807617,-0.236084,0.595215,-0.035156
2.208940,-0.826172,0.274414,9.802734,-0.183594,0.612549,-0.052734
2.218261,-0.830078,0.272461,9.807617,-0.227295,0.665039,-0.008789
2.227581,-0.835938,0.272461,9.808594,-0.192383,0.560059,-0.035156
2.236902,-0.812500,0.262695,9.806641,-0.314941,0.647705,-0.008789
2.246222,-0.828125,0.269531,9.799805,-0.314941,0.621338,-0.008789
2.255542,-0.833984,0.259766,9.805664,-0.297363,0.638916,0.026123
2.264863,-0.833008,0.268555,9.806641,-0.314941,0.586426,0.000000
2.274183,-0.821289,0.264648,9.797852,-0.236084,0.638916,0.017334
2.283504,-0.830078,0.275391,9.806641,-0.262451,0.647705,0.052490
2.292824,-0.821289,0.274414,9.804688,-0.262451,0.647705,0.043701
2.302145,-0.823242,0.267578,9.800781,-0.288574,0.656250,-0.017578
2.311465,-0.828125,0.269531,9.812500,-0.306152,0.630127,0.026123
2.320785,-0.828125,0.263672,9.799805,-0.271240,0.612549,0.008545
2.330106,-0.829102,0.275391,9.805664,-0.288574,0.621338,0.008545
2.339426,-0.828125,0.263672,9.808594,-0.306152,0.586426,-0.026367
2.348747,-0.830078,0.275391,9.807617,-0.297363,0.603760,0.017334
2.358067,-0.833008,0.272461,9.797852,-0.218506,0.551270,0.017334
2.367388,-0.828125,0.278320,9.810547,-0.218506,0.638916,-0.017578
2.376708,-0.831055,0.277344,9.817383,-0.306152,0.621338,-0.061279
2.386028,-0.826172,0.282227,9.794922,-0.367432,0.700195,0.008545
2.395349,-0.820312,0.283203,9.812500,-0.306152,0.673828,-0.008789
2.404669,-0.828125,0.278320,9.810547,-0.227295,0.621338,-0.070068
2.413990,-0.828125,0.280273,9.813477,-0.271240,0.647705,-0.061279
2.423310,-0.826172,0.283203,9.805664,-0.253662,0.612549,0.000000
2.432630,-0.826172,0.277344,9.802734,-0.297363,0.612549,-0.026367
2.441951,-0.831055,0.277344,9.808594,-0.262451,0.630127,-0.052734
2.451271,-0.831055,0.277344,9.808594,-0.314941,0.603760,-0.035156
2.460592,-0.828125,0.282227,9.810547,-0.341064,0.647705,0.008545
2.469912,-0.818359,0.270508,9.795898,-0.314941,0.586426,0.008545
2.479233,-0.835938,0.282227,9.813477,-0.271240,0.577637,-0.026367
2.488553,-0.829102,0.275391,9.824219,-0.218506,0.586426,0.008545
2.497873,-0.813477,0.268555,9.795898,-0.227295,0.630127,-0.052734
2.507194,-0.833008,0.286133,9.812500,-0.279785,0.603760,-0.017578
2.516514,-0.830078,0.270508,9.799805,-0.306152,0.586426,-0.043945
2.525835,-0.833008,0.264648,9.812500,-0.279785,0.621338,-0.096436
2.535155,-0.829102,0.266602,9.822266,-0.288574,0.656250,-0.061279
2.544476,-0.833984,0.268555,9.807617,-0.279785,0.595215,-0.017578
2.553796,-0.828125,0.269531,9.808594,-0.314941,0.630127,-0.070068
2.563116,-0.826172,0.261719,9.801758,-0.279785,0.612549,-0.061279
2.572437,-0.833984,0.258789,9.800781,-0.227295,0.603760,0.000000
2.581757,-0.826172,0.263672,9.807617,-0.227295,0.621338,-0.043945
2.591078,-0.826172,0.261719,9.812500,-0.227295,0.595215,-0.052734
2.600398,-0.826172,0.267578,9.791992,-0.288574,0.630127,-0.043945
2.609719,-0.836914,0.263672,9.797852,-0.358643,0.595215,-0.008789
2.619039,-0.829102,0.275391,9.811523,-0.314941,0.630127,0.000000
2.628359,-0.831055,0.262695,9.804688,-0.271240,0.533936,-0.035156
2.637680,-0.833984,0.267578,9.801758,-0.253662,0.586426,-0.052734
2.647000,-0.829102,0.273438,9.806641,-0.306152,0.682617,-0.052734
2.656321,-0.829102,0.268555,9.796875,-0.262451,0.638916,0.026123
2.665641,-0.830078,0.279297,9.805664,-0.236084,0.647705,-0.026367
2.674962,-0.828125,0.280273,9.807617,-0.358643,0.682617,-0.026367
2.684282,-0.823242,0.268555,9.807617,-0.297363,0.542725,-0.078857
2.693602,-0.831055,0.280273,9.805664,-0.297363,0.595215,-0.008789
2.702923,-0.834961,0.272461,9.804688,-0.244873,0.621338,-0.035156
2.712243,-0.830078,0.282227,9.810547,-0.288574,0.560059,-0.070068
2.721564,-0.829102,0.279297,9.807617,-0.288574,0.603760,-0.052734
2.730884,-0.836914,0.278320,9.805664,-0.279785,0.612549,-0.043945
2.740204,-0.818359,0.280273,9.812500,-0.236084,0.612549,0.000000
2.749525,-0.834961,0.279297,9.805664,-0.279785,0.586426,-0.026367
2.758845,-0.826172,0.274414,9.804688,-0.271240,0.603760,0.008545
2.768166,-0.834961,0.279297,9.810547,-0.271240,0.612549,-0.017578
2.777486,-0.833984,0.272461,9.807617,-0.253662,0.621338,-0.035156
2.786807,-0.830078,0.270508,9.804688,-0.297363,0.691406,-0.017578
2.796127,-0.824219,0.266602,9.806641,-0.236084,0.656250,-0.008789
2.805447,-0.833008,0.262695,9.802734,-0.349854,0.647705,-0.052734
2.814768,-0.829102,0.275391,9.802734,-0.332275,0.691406,-0.043945
2.824088,-0.831055,0.266602,9.802734,-0.323730,0.682617,-0.026367
2.833409,-0.830078,0.267578,9.804688,-0.314941,0.647705,-0.035156
2.842729,-0.834961,0.261719,9.802734,-0.218506,0.630127,0.000000
2.852050,-0.823242,0.264648,9.800781,-0.341064,0.656250,-0.035156
2.861370,-0.825195,0.264648,9.815430,-0.349854,0.673828,-0.017578
2.870690,-0.819336,0.259766,9.795898,-0.288574,0.656250,0.026123
2.880011,-0.830078,0.270508,9.815430,-0.341064,0.647705,-0.026367
2.889331,-0.833008,0.261719,9.799805,-0.306152,0.708984,0.008545
2.898652,-0.829102,0.262695,9.802734,-0.279785,0.682617,0.017334
2.907972,-0.818359,0.273438,9.808594,-0.218506,0.586426,-0.017578
2.917293,-0.831055,0.269531,9.806641,-0.279785,0.638916,-0.052734
2.926613,-0.823242,0.269531,9.800781,-0.349854,0.638916,-0.026367
2.935933,-0.819336,0.267578,9.816406,-0.253662,0.603760,0.017334
2.945254,-0.821289,0.266602,9.799805,-0.262451,0.595215,-0.043945
2.954574,-0.833008,0.277344,9.810547,-0.288574,0.603760,-0.008789
2.963895,-0.831055,0.273438,9.806641,-0.297363,0.656250,0.008545
2.973215,-0.833008,0.270508,9.807617,-0.314941,0.647705,0.069824
2.982535,-0.828125,0.273438,9.807617,-0.227295,0.682617,-0.035156
2.991856,-0.836914,0.278320,9.815430,-0.262451,0.612549,0.000000
3.001176,-0.831055,0.272461,9.797852,-0.253662,0.603760,0.000000
3.010497,-0.833008,0.279297,9.810547,-0.262451,0.682617,-0.043945
3.019817,-0.831055,0.277344,9.804688,-0.341064,0.656250,-0.052734
3.029138,-0.833984,0.277344,9.791992,-0.314941,0.621338,-0.070068
3.038458,-0.829102,0.282227,9.805664,-0.341064,0.621338,0.000000
3.047778,-0.810547,0.279297,9.794922,-0.279785,0.656250,0.008545
3.057099,-0.828125,0.274414,9.801758,-0.244873,0.577637,0.052490
3.066419,-0.821289,0.280273,9.802734,-0.218506,0.603760,0.034912
3.075740,-0.806641,0.274414,9.794922,-0.279785,0.665039,-0.052734
3.085060,-0.802734,0.272461,9.797852,-0.271240,0.656250,0.000000
3.094381,-0.815430,0.274414,9.792969,-0.393555,0.665039,-0.026367
3.103701,-0.808594,0.282227,9.801758,-0.358643,0.700195,-0.061279
3.113021,-0.814453,0.275391,9.802734,-0.349854,0.630127,-0.070068
3.122342,-0.812500,0.272461,9.795898,-0.323730,0.577637,-0.070068
3.131662,-0.819336,0.269531,9.812500,-0.306152,0.630127,0.017334
3.140983,-0.820312,0.268555,9.812500,-0.314941,0.638916,-0.052734
3.150303,-0.826172,0.248047,9.818359,-0.314941,0.656250,-0.026367
3.159624,-0.841797,0.258789,9.810547,-0.306152,0.665039,-0.061279
3.168944,-0.833008,0.236328,9.843750,-0.209961,0.577637,-0.061279
3.178264,-0.828125,0.273438,9.828125,-0.209961,0.551270,-0.070068
3.187585,-0.855469,0.253906,9.833984,-0.271240,0.647705,-0.008789
3.196905,-0.860352,0.225586,9.837891,-0.244873,0.656250,0.008545
3.206226,-0.852539,0.233398,9.836914,-0.201172,0.656250,-0.026367
3.215546,-0.870117,0.236328,9.828125,-0.218506,0.700195,0.008545
3.224866,-0.856445,0.220703,9.832031,-0.253662,0.621338,0.034912
3.234187,-0.867188,0.232422,9.830078,-0.218506,0.630127,0.034912
3.243507,-0.862305,0.231445,9.813477,-0.192383,0.638916,0.026123
3.252828,-0.863281,0.219727,9.816406,-0.218506,0.612549,-0.008789
3.262148,-0.866211,0.240234,9.808594,-0.122314,0.621338,0.069824
3.271469,-0.850586,0.238281,9.801758,-0.174805,0.560059,0.052490
3.280789,-0.843750,0.233398,9.797852,-0.174805,0.603760,-0.026367
3.290109,-0.821289,0.250977,9.789062,-0.183594,0.603760,0.034912
3.299430,-0.820312,0.262695,9.791992,-0.139893,0.568848,-0.008789
3.308750,-0.819336,0.256836,9.776367,-0.131104,0.673828,-0.035156
3.318071,-0.809570,0.275391,9.784180,-0.122314,0.577637,-0.026367
3.327391,-0.802734,0.300781,9.795898,-0.069824,0.630127,-0.017578
3.336712,-0.789062,0.286133,9.782227,-0.096191,0.630127,-0.026367
3.346032,-0.787109,0.301758,9.780273,-0.104980,0.612549,-0.061279
3.355352,-0.782227,0.312500,9.787109,-0.087402,0.612549,-0.078857
3.364673,-0.775391,0.327148,9.795898,-0.139893,0.656250,-0.078857
3.373993,-0.770508,0.335938,9.780273,-0.139893,0.595215,-0.026367
3.383314,-0.775391,0.341797,9.787109,-0.236084,0.630127,-0.061279
3.392634,-0.789062,0.349609,9.802734,-0.236084,0.621338,-0.043945
3.401955,-0.776367,0.351562,9.775391,-0.244873,0.621338,-0.105225
3.411275,-0.801758,0.357422,9.802734,-0.358643,0.665039,-0.035156
3.420595,-0.820312,0.348633,9.812500,-0.358643,0.700195,-0.096436
3.429916,-0.809570,0.330078,9.787109,-0.402344,0.630127,-0.131348
3.439236,-0.820312,0.343750,9.800781,-0.358643,0.630127,-0.008789
3.448557,-0.823242,0.311523,9.799805,-0.419922,0.708984,-0.026367
3.457877,-0.847656,0.319336,9.811523,-0.524902,0.656250,-0.035156
3.467197,-0.888672,0.300781,9.842773,-0.437256,0.665039,-0.026367
3.476518,-0.813477,0.282227,9.762695,-0.507324,0.630127,0.017334
3.485838,-0.875977,0.290039,9.813477,-0.507324,0.656250,-0.026367
3.495159,-0.892578,0.253906,9.837891,-0.498535,0.673828,-0.026367
3.504479,-0.862305,0.242188,9.810547,-0.454834,0.638916,-0.026367
3.513800,-0.871094,0.241211,9.811523,-0.428711,0.638916,-0.026367
3.523120,-0.902344,0.227539,9.840820,-0.367432,0.630127,-0.035156
3.532440,-0.873047,0.209961,9.824219,-0.437256,0.603760,-0.017578
3.541761,-0.861328,0.224609,9.811523,-0.393555,0.603760,0.008545
3.551081,-0.893555,0.200195,9.858398,-0.411133,0.595215,-0.061279
3.560402,-0.843750,0.189453,9.801758,-0.341064,0.551270,-0.026367
3.569722,-0.846680,0.221680,9.816406,-0.349854,0.621338,0.017334
3.579043,-0.858398,0.224609,9.853516,-0.323730,0.621338,0.026123
3.588363,-0.831055,0.196289,9.811523,-0.332275,0.577637,-0.052734
3.597683,-0.828125,0.215820,9.828125,-0.262451,0.551270,0.026123
3.607004,-0.834961,0.233398,9.833984,-0.253662,0.577637,-0.061279
3.616324,-0.820312,0.209961,9.808594,-0.201172,0.603760,-0.026367
3.625645,-0.817383,0.226562,9.816406,-0.218506,0.621338,-0.017578
3.634965,-0.815430,0.247070,9.826172,-0.244873,0.603760,-0.026367
3.644286,-0.802734,0.258789,9.797852,-0.174805,0.586426,-0.061279
3.653606,-0.798828,0.248047,9.799805,-0.183594,0.560059,-0.017578
3.662926,-0.803711,0.270508,9.801758,-0.183594,0.577637,0.000000
3.672247,-0.791992,0.272461,9.794922,-0.218506,0.612549,-0.061279
3.681567,-0.789062,0.288086,9.801758,-0.227295,0.630127,-0.008789
3.690888,-0.783203,0.292969,9.805664,-0.201172,0.638916,-0.017578
3.700208,-0.802734,0.292969,9.779297,-0.157471,0.577637,0.043701
3.709528,-0.798828,0.295898,9.779297,-0.174805,0.682617,0.000000
3.718849,-0.802734,0.305664,9.792969,-0.122314,0.630127,-0.043945
3.728169,-0.808594,0.305664,9.786133,-0.174805,0.656250,0.043701
3.737490,-0.814453,0.299805,9.781250,-0.139893,0.656250,-0.035156
3.746810,-0.814453,0.314453,9.785156,-0.192383,0.647705,-0.096436
3.756131,-0.834961,0.304688,9.784180,-0.253662,0.700195,-0.052734
3.765451,-0.826172,0.307617,9.776367,-0.227295,0.621338,-0.035156
3.774771,-0.825195,0.306641,9.790039,-0.288574,0.621338,-0.087646
3.784092,-0.831055,0.303711,9.804688,-0.279785,0.656250,-0.043945
3.793412,-0.833008,0.296875,9.795898,-0.341064,0.630127,0.008545
3.802733,-0.843750,0.298828,9.791016,-0.349854,0.638916,0.017334
3.812053,-0.846680,0.296875,9.801758,-0.384766,0.621338,0.000000
3.821374,-0.846680,0.283203,9.816406,-0.402344,0.621338,-0.008789
3.830694,-0.845703,0.284180,9.813477,-0.323730,0.595215,-0.078857
3.840014,-0.855469,0.264648,9.827148,-0.402344,0.656250,-0.043945
3.849335,-0.851562,0.267578,9.836914,-0.376221,0.560059,0.026123
3.858655,-0.846680,0.253906,9.818359,-0.341064,0.621338,-0.008789
3.867976,-0.852539,0.251953,9.827148,-0.358643,0.682617,-0.008789
3.877296,-0.851562,0.242188,9.830078,-0.376221,0.595215,-0.078857
3.886617,-0.843750,0.238281,9.826172,-0.323730,0.638916,-0.035156
3.895937,-0.850586,0.237305,9.832031,-0.341064,0.638916,-0.008789
3.905257,-0.843750,0.226562,9.817383,-0.306152,0.586426,-0.070068
3.914578,-0.835938,0.235352,9.824219,-0.314941,0.551270,-0.026367
3.923898,-0.839844,0.226562,9.829102,-0.349854,0.621338,-0.078857
3.933219,-0.840820,0.231445,9.822266,-0.279785,0.647705,-0.017578
3.942539,-0.833984,0.231445,9.808594,-0.279785,0.656250,-0.017578
3.951860,-0.823242,0.235352,9.795898,-0.192383,0.612549,-0.035156
3.961180,-0.820312,0.241211,9.799805,-0.288574,0.621338,0.017334
3.970500,-0.833984,0.253906,9.805664,-0.227295,0.647705,-0.017578
3.979821,-0.815430,0.257812,9.789062,-0.227295,0.638916,-0.070068
3.989141,-0.828125,0.255859,9.791992,-0.236084,0.603760,-0.078857
3.998462,-0.819336,0.262695,9.794922,-0.183594,0.551270,0.034912
4.007782,-0.810547,0.268555,9.774414,-0.209961,0.577637,-0.052734
4.017102,-0.823242,0.280273,9.780273,-0.279785,0.612549,-0.061279
4.026423,-0.818359,0.288086,9.790039,-0.166016,0.621338,-0.061279
4.035743,-0.815430,0.296875,9.791016,-0.183594,0.551270,-0.061279
4.045064,-0.817383,0.294922,9.781250,-0.236084,0.577637,0.008545
4.054384,-0.819336,0.304688,9.796875,-0.131104,0.647705,-0.008789
4.063705,-0.815430,0.299805,9.795898,-0.148682,0.621338,-0.052734
4.073025,-0.821289,0.311523,9.791016,-0.279785,0.638916,-0.035156
4.082345,-0.825195,0.304688,9.807617,-0.297363,0.647705,-0.078857
4.091666,-0.821289,0.298828,9.787109,-0.297363,0.638916,-0.017578
4.100986,-0.828125,0.327148,9.800781,-0.288574,0.595215,-0.026367
4.110307,-0.838867,0.317383,9.799805,-0.384766,0.586426,-0.035156
4.119627,-0.798828,0.253906,9.810547,-0.349854,0.621338,-0.087646
4.128948,-0.818359,0.257812,9.801758,-0.306152,0.595215,-0.017578
4.138268,-0.830078,0.348633,9.819336,-0.314941,0.612549,0.043701
4.147588,-0.829102,0.296875,9.819336,-0.428711,0.665039,-0.052734
4.156909,-0.819336,0.220703,9.816406,-0.306152,0.638916,-0.052734
4.166229,-0.820312,0.300781,9.837891,-0.271240,0.603760,0.069824
4.175550,-0.828125,0.292969,9.842773,-0.358643,0.638916,-0.026367
4.184870,-0.812500,0.218750,9.821289,-0.358643,0.621338,-0.061279
4.194191,-0.819336,0.268555,9.826172,-0.358643,0.665039,-0.061279
4.203511,-0.826172,0.275391,9.832031,-0.341064,0.638916,-0.096436
4.212831,-0.825195,0.232422,9.818359,-0.393555,0.612549,-0.026367
4.222152,-0.821289,0.253906,9.800781,-0.262451,0.656250,-0.035156
4.231472,-0.835938,0.262695,9.812500,-0.358643,0.691406,-0.052734
4.240793,-0.831055,0.231445,9.827148,-0.349854,0.630127,-0.026367
4.250113,-0.828125,0.241211,9.795898,-0.341064,0.603760,-0.061279
4.259433,-0.838867,0.247070,9.802734,-0.306152,0.595215,-0.061279
4.268754,-0.833008,0.245117,9.804688,-0.332275,0.638916,-0.017578
4.278074,-0.835938,0.241211,9.796875,-0.244873,0.665039,-0.043945
4.287395,-0.844727,0.256836,9.795898,-0.262451,0.673828,-0.061279
4.296715,-0.834961,0.242188,9.802734,-0.297363,0.595215,-0.043945
4.306036,-0.833008,0.243164,9.792969,-0.271240,0.673828,-0.052734
4.315356,-0.829102,0.253906,9.795898,-0.358643,0.708984,-0.026367
4.324676,-0.839844,0.257812,9.794922,-0.288574,0.691406,-0.026367
4.333997,-0.841797,0.253906,9.797852,-0.253662,0.700195,-0.008789
4.343317,-0.831055,0.263672,9.794922,-0.253662,0.621338,-0.008789
4.352638,-0.833008,0.264648,9.787109,-0.174805,0.577637,-0.017578
4.361958,-0.841797,0.259766,9.800781,-0.148682,0.673828,-0.052734
4.371279,-0.833008,0.272461,9.818359,-0.227295,0.638916,-0.026367
4.380599,-0.826172,0.285156,9.799805,-0.227295,0.656250,-0.035156
4.389919,-0.833008,0.285156,9.806641,-0.209961,0.673828,-0.035156
4.399240,-0.829102,0.286133,9.828125,-0.192383,0.630127,0.026123
4.408560,-0.830078,0.284180,9.796875,-0.209961,0.595215,-0.043945
4.417881,-0.823242,0.283203,9.808594,-0.306152,0.638916,-0.026367
4.427201,-0.834961,0.291016,9.819336,-0.271240,0.603760,-0.017578
4.436522,-0.820312,0.293945,9.816406,-0.236084,0.612549,0.034912
4.445842,-0.819336,0.296875,9.805664,-0.262451,0.638916,0.017334
4.455162,-0.829102,0.292969,9.813477,-0.253662,0.647705,-0.035156
4.464483,-0.821289,0.285156,9.804688,-0.253662,0.595215,-0.035156
4.473803,-0.825195,0.304688,9.813477,-0.271240,0.673828,-0.061279
4.483124,-0.815430,0.285156,9.817383,-0.306152,0.691406,-0.052734
4.492444,-0.819336,0.282227,9.806641,-0.349854,0.656250,0.026123
4.501764,-0.829102,0.283203,9.806641,-0.411133,0.700195,-0.052734
4.511085,-0.828125,0.280273,9.816406,-0.428711,0.708984,-0.017578
4.520405,-0.821289,0.283203,9.810547,-0.358643,0.665039,0.017334
4.529726,-0.813477,0.274414,9.804688,-0.314941,0.577637,0.000000
4.539046,-0.838867,0.268555,9.810547,-0.297363,0.630127,0.008545
4.548367,-0.821289,0.255859,9.796875,-0.323730,0.621338,-0.061279
4.557687,-0.833008,0.253906,9.807617,-0.279785,0.647705,-0.052734
4.567007,-0.826172,0.252930,9.794922,-0.349854,0.673828,0.000000
4.576328,-0.829102,0.251953,9.797852,-0.288574,0.656250,-0.017578
4.585648,-0.831055,0.256836,9.800781,-0.271240,0.630127,-0.017578
4.594969,-0.836914,0.253906,9.796875,-0.262451,0.603760,0.026123
4.604289,-0.829102,0.261719,9.787109,-0.288574,0.560059,-0.026367
4.613610,-0.825195,0.252930,9.810547,-0.314941,0.647705,0.017334
4.622930,-0.841797,0.257812,9.792969,-0.279785,0.612549,-0.026367
4.632250,-0.824219,0.259766,9.802734,-0.288574,0.586426,0.008545
4.641571,-0.834961,0.264648,9.802734,-0.236084,0.630127,-0.017578
4.650891,-0.835938,0.259766,9.812500,-0.244873,0.621338,-0.026367
4.660212,-0.830078,0.262695,9.785156,-0.332275,0.612549,-0.035156
4.669532,-0.828125,0.264648,9.815430,-0.244873,0.568848,-0.008789
4.678853,-0.833008,0.273438,9.811523,-0.314941,0.586426,-0.061279
4.688173,-0.824219,0.273438,9.789062,-0.192383,0.603760,-0.052734
4.697493,-0.819336,0.268555,9.811523,-0.244873,0.647705,-0.017578
4.706814,-0.820312,0.278320,9.823242,-0.279785,0.568848,-0.043945
4.716134,-0.820312,0.273438,9.791016,-0.236084,0.630127,-0.061279
4.725455,-0.828125,0.274414,9.807617,-0.253662,0.665039,-0.026367
4.734775,-0.823242,0.284180,9.823242,-0.297363,0.691406,-0.035156
4.744095,-0.824219,0.274414,9.810547,-0.297363,0.665039,-0.008789
4.753416,-0.814453,0.280273,9.804688,-0.227295,0.647705,-0.052734
4.762736,-0.823242,0.277344,9.824219,-0.323730,0.682617,0.026123
4.772057,-0.818359,0.285156,9.808594,-0.209961,0.656250,0.008545
4.781377,-0.828125,0.275391,9.807617,-0.227295,0.638916,-0.035156
4.790698,-0.824219,0.270508,9.806641,-0.253662,0.691406,-0.061279
4.800018,-0.820312,0.283203,9.817383,-0.323730,0.682617,-0.043945
4.809338,-0.819336,0.273438,9.792969,-0.341064,0.603760,-0.035156
4.818659,-0.828125,0.272461,9.821289,-0.262451,0.682617,-0.026367
4.827979,-0.826172,0.272461,9.812500,-0.349854,0.708984,-0.017578
4.837300,-0.826172,0.258789,9.799805,-0.376221,0.691406,-0.043945
4.846620,-0.826172,0.268555,9.804688,-0.306152,0.647705,-0.043945
4.855941,-0.821289,0.272461,9.811523,-0.358643,0.673828,-0.061279
4.865261,-0.828125,0.263672,9.800781,-0.341064,0.621338,-0.043945
4.874581,-0.821289,0.267578,9.794922,-0.314941,0.647705,0.026123
4.883902,-0.825195,0.272461,9.805664,-0.288574,0.621338,-0.052734
4.893222,-0.820312,0.257812,9.785156,-0.332275,0.560059,-0.035156
4.902543,-0.824219,0.268555,9.804688,-0.306152,0.612549,0.000000
4.911863,-0.820312,0.275391,9.796875,-0.341064,0.647705,-0.017578
4.921184,-0.834961,0.249023,9.818359,-0.332275,0.630127,-0.043945
4.930504,-0.814453,0.274414,9.765625,-0.288574,0.638916,-0.035156
4.939824,-0.845703,0.248047,9.812500,-0.262451,0.612549,-0.026367
4.949145,-0.814453,0.275391,9.791992,-0.236084,0.630127,0.026123
4.958465,-0.839844,0.259766,9.833984,-0.209961,0.656250,-0.026367
4.967786,-0.826172,0.264648,9.799805,-0.201172,0.612549,0.000000
4.977106,-0.823242,0.266602,9.816406,-0.218506,0.621338,-0.035156
4.986427,-0.845703,0.273438,9.844727,-0.218506,0.665039,-0.087646
4.995747,-0.804688,0.252930,9.774414,-0.262451,0.560059,-0.096436
5.005067,-0.849609,0.259766,9.847656,-0.271240,0.665039,-0.043945
5.014388,-0.830078,0.269531,9.800781,-0.218506,0.621338,-0.061279
5.023708,-0.833008,0.256836,9.827148,-0.209961,0.665039,-0.017578
5.033029,-0.845703,0.283203,9.823242,-0.271240,0.560059,-0.035156
5.042349,-0.820312,0.257812,9.791992,-0.314941,0.560059,-0.035156
5.051669,-0.850586,0.268555,9.801758,-0.297363,0.630127,-0.078857
5.060990,-0.823242,0.274414,9.817383,-0.236084,0.595215,-0.043945
5.070310,-0.860352,0.268555,9.810547,-0.271240,0.630127,-0.026367
5.079631,-0.828125,0.279297,9.785156,-0.271240,0.630127,0.000000
5.088951,-0.829102,0.282227,9.794922,-0.279785,0.612549,-0.017578
5.098272,-0.845703,0.266602,9.811523,-0.236084,0.621338,0.000000
5.107592,-0.812500,0.294922,9.763672,-0.244873,0.621338,-0.043945
5.116912,-0.836914,0.270508,9.811523,-0.244873,0.647705,0.034912
5.126233,-0.819336,0.289062,9.768555,-0.271240,0.665039,-0.017578
5.135553,-0.831055,0.279297,9.811523,-0.323730,0.638916,-0.017578
5.144874,-0.802734,0.290039,9.805664,-0.271240,0.630127,-0.043945
5.154194,-0.826172,0.283203,9.804688,-0.262451,0.595215,-0.035156
5.163515,-0.814453,0.293945,9.800781,-0.244873,0.612549,-0.008789
5.172835,-0.809570,0.283203,9.817383,-0.244873,0.630127,-0.070068
5.182155,-0.815430,0.268555,9.812500,-0.209961,0.621338,-0.078857
5.191476,-0.804688,0.288086,9.795898,-0.306152,0.630127,0.000000
5.200796,-0.818359,0.279297,9.802734,-0.349854,0.551270,-0.043945
5.210117,-0.815430,0.261719,9.821289,-0.358643,0.577637,-0.043945
5.219437,-0.814453,0.285156,9.813477,-0.358643,0.638916,-0.017578
5.228758,-0.823242,0.295898,9.812500,-0.341064,0.603760,-0.043945
5.238078,-0.817383,0.249023,9.807617,-0.279785,0.612549,-0.017578
5.247398,-0.820312,0.263672,9.829102,-0.297363,0.656250,-0.061279
5.256719,-0.823242,0.284180,9.816406,-0.288574,0.630127,-0.078857
5.266039,-0.833984,0.247070,9.802734,-0.332275,0.630127,-0.052734
5.275360,-0.834961,0.255859,9.815430,-0.279785,0.700195,-0.008789
5.284680,-0.840820,0.279297,9.823242,-0.271240,0.691406,-0.017578
5.294000,-0.843750,0.247070,9.801758,-0.279785,0.630127,0.052490
5.303321,-0.843750,0.252930,9.806641,-0.262451,0.603760,0.000000
5.312641,-0.858398,0.267578,9.813477,-0.236084,0.577637,0.000000
5.321962,-0.834961,0.261719,9.799805,-0.297363,0.630127,-0.061279
5.331282,-0.834961,0.253906,9.796875,-0.279785,0.647705,0.026123
5.340603,-0.845703,0.255859,9.790039,-0.271240,0.691406,0.008545
5.349923,-0.833984,0.253906,9.791016,-0.236084,0.638916,0.017334
5.359243,-0.839844,0.259766,9.796875,-0.262451,0.656250,0.017334
5.368564,-0.838867,0.268555,9.797852,-0.262451,0.621338,-0.035156
5.377884,-0.810547,0.251953,9.773438,-0.323730,0.542725,-0.035156
5.387205,-0.823242,0.269531,9.794922,-0.227295,0.647705,-0.052734
5.396525,-0.830078,0.288086,9.801758,-0.332275,0.603760,-0.017578
5.405846,-0.820312,0.269531,9.787109,-0.201172,0.577637,-0.017578
5.415166,-0.820312,0.275391,9.799805,-0.244873,0.603760,-0.026367
5.424486,-0.817383,0.274414,9.791016,-0.297363,0.621338,-0.043945
5.433807,-0.813477,0.288086,9.815430,-0.306152,0.621338,-0.070068
5.443127,-0.817383,0.272461,9.810547,-0.288574,0.595215,-0.043945
5.452448,-0.826172,0.292969,9.808594,-0.271240,0.595215,-0.035156
5.461768,-0.821289,0.280273,9.819336,-0.271240,0.612549,-0.035156
5.471089,-0.819336,0.284180,9.819336,-0.236084,0.612549,-0.008789
5.480409,-0.826172,0.291016,9.807617,-0.288574,0.612549,-0.026367
5.489729,-0.819336,0.273438,9.810547,-0.288574,0.673828,0.008545
5.499050,-0.825195,0.270508,9.815430,-0.236084,0.638916,-0.043945
5.508370,-0.834961,0.272461,9.827148,-0.253662,0.612549,-0.008789
5.517691,-0.833984,0.268555,9.824219,-0.297363,0.647705,0.017334
5.527011,-0.834961,0.268555,9.818359,-0.306152,0.647705,0.026123
5.536331,-0.825195,0.262695,9.807617,-0.288574,0.673828,-0.070068
5.545652,-0.828125,0.261719,9.818359,-0.323730,0.630127,-0.061279
5.554972,-0.841797,0.255859,9.816406,-0.297363,0.647705,-0.026367
5.564293,-0.829102,0.259766,9.796875,-0.288574,0.647705,0.017334
5.573613,-0.844727,0.262695,9.811523,-0.314941,0.638916,-0.017578
5.582934,-0.838867,0.247070,9.807617,-0.306152,0.656250,-0.008789
5.592254,-0.836914,0.255859,9.813477,-0.253662,0.621338,-0.061279
5.601574,-0.841797,0.270508,9.802734,-0.297363,0.577637,0.017334
5.610895,-0.828125,0.252930,9.776367,-0.332275,0.595215,0.008545
5.620215,-0.844727,0.255859,9.813477,-0.236084,0.665039,-0.017578
5.629536,-0.833984,0.270508,9.787109,-0.262451,0.621338,-0.043945
5.638856,-0.825195,0.257812,9.792969,-0.253662,0.630127,-0.017578
5.648177,-0.831055,0.253906,9.807617,-0.218506,0.621338,-0.035156
5.657497,-0.824219,0.280273,9.804688,-0.218506,0.621338,-0.026367
5.666817,-0.835938,0.277344,9.791992,-0.236084,0.595215,-0.035156
5.676138,-0.820312,0.257812,9.800781,-0.192383,0.647705,-0.043945
5.685458,-0.810547,0.284180,9.823242,-0.262451,0.638916,-0.035156
5.694779,-0.824219,0.294922,9.799805,-0.236084,0.656250,-0.017578
5.704099,-0.830078,0.264648,9.797852,-0.314941,0.612549,-0.008789
5.713420,-0.828125,0.275391,9.791016,-0.349854,0.612549,-0.052734
5.722740,-0.838867,0.292969,9.817383,-0.279785,0.630127,0.017334
5.732060,-0.828125,0.280273,9.812500,-0.271240,0.603760,-0.008789
5.741381,-0.823242,0.277344,9.805664,-0.323730,0.612549,-0.061279
5.750701,-0.819336,0.286133,9.815430,-0.271240,0.621338,-0.052734
5.760022,-0.812500,0.283203,9.815430,-0.218506,0.673828,-0.052734
5.769342,-0.830078,0.270508,9.822266,-0.306152,0.647705,0.026123
5.778662,-0.824219,0.284180,9.811523,-0.262451,0.612549,-0.061279
5.787983,-0.838867,0.278320,9.811523,-0.253662,0.700195,-0.026367
5.797303,-0.830078,0.272461,9.815430,-0.288574,0.621338,0.008545
5.806624,-0.833008,0.286133,9.818359,-0.209961,0.612549,-0.026367
5.815944,-0.833008,0.273438,9.812500,-0.183594,0.673828,0.043701
5.825265,-0.829102,0.266602,9.805664,-0.314941,0.665039,0.052490
5.834585,-0.833008,0.274414,9.811523,-0.349854,0.577637,0.026123
5.843905,-0.829102,0.262695,9.801758,-0.314941,0.630127,-0.026367
5.853226,-0.839844,0.259766,9.800781,-0.323730,0.577637,-0.043945
5.862546,-0.834961,0.273438,9.804688,-0.323730,0.603760,-0.026367
5.871867,-0.833008,0.264648,9.790039,-0.314941,0.647705,-0.026367
5.881187,-0.836914,0.256836,9.802734,-0.279785,0.638916,0.017334
5.890508,-0.824219,0.266602,9.786133,-0.244873,0.673828,-0.035156
5.899828,-0.821289,0.262695,9.778320,-0.244873,0.595215,-0.061279
5.909148,-0.830078,0.257812,9.786133,-0.323730,0.560059,-0.052734
5.918469,-0.825195,0.262695,9.790039,-0.332275,0.673828,-0.026367
5.927789,-0.821289,0.267578,9.781250,-0.279785,0.630127,-0.043945
5.937110,-0.826172,0.252930,9.781250,-0.306152,0.647705,0.000000
5.946430,-0.818359,0.270508,9.800781,-0.279785,0.638916,-0.061279
5.955751,-0.818359,0.263672,9.794922,-0.244873,0.595215,-0.043945
5.965071,-0.819336,0.261719,9.800781,-0.183594,0.586426,-0.035156
5.974391,-0.823242,0.269531,9.795898,-0.244873,0.638916,-0.070068
5.983712,-0.826172,0.268555,9.817383,-0.227295,0.533936,-0.078857
5.993032,-0.813477,0.264648,9.824219,-0.262451,0.586426,-0.087646
6.002353,-0.823242,0.279297,9.822266,-0.297363,0.647705,0.069824
6.011673,-0.828125,0.268555,9.819336,-0.288574,0.586426,0.000000
6.020993,-0.821289,0.289062,9.828125,-0.201172,0.621338,-0.026367
6.030314,-0.821289,0.280273,9.838867,-0.253662,0.577637,-0.017578
6.039634,-0.830078,0.288086,9.833008,-0.271240,0.595215,-0.017578
6.048955,-0.833008,0.279297,9.833008,-0.236084,0.577637,-0.035156
6.058275,-0.828125,0.286133,9.830078,-0.288574,0.682617,-0.035156
6.067596,-0.834961,0.292969,9.840820,-0.297363,0.638916,-0.008789
6.076916,-0.830078,0.285156,9.808594,-0.279785,0.630127,0.000000
6.086236,-0.829102,0.282227,9.816406,-0.288574,0.647705,0.000000
6.095557,-0.830078,0.270508,9.808594,-0.262451,0.612549,0.017334
6.104877,-0.840820,0.279297,9.815430,-0.262451,0.665039,-0.008789
6.114198,-0.836914,0.275391,9.799805,-0.236084,0.621338,-0.026367
6.123518,-0.833008,0.273438,9.778320,-0.306152,0.577637,-0.061279
6.132839,-0.834961,0.275391,9.782227,-0.384766,0.647705,-0.017578
6.142159,-0.839844,0.262695,9.787109,-0.349854,0.647705,-0.008789
6.151479,-0.821289,0.268555,9.760742,-0.367432,0.630127,-0.017578
6.160800,-0.831055,0.269531,9.773438,-0.376221,0.656250,-0.052734
6.170120,-0.833008,0.262695,9.775391,-0.367432,0.595215,-0.017578
6.179441,-0.821289,0.263672,9.765625,-0.358643,0.621338,-0.087646
6.188761,-0.828125,0.263672,9.773438,-0.402344,0.691406,-0.017578
6.198082,-0.824219,0.263672,9.790039,-0.314941,0.603760,-0.026367
6.207402,-0.819336,0.255859,9.790039,-0.306152,0.630127,-0.017578
6.216722,-0.820312,0.258789,9.792969,-0.262451,0.612549,-0.026367
6.226043,-0.819336,0.263672,9.804688,-0.279785,0.638916,-0.052734
6.235363,-0.813477,0.253906,9.812500,-0.306152,0.638916,-0.052734
6.244684,-0.818359,0.253906,9.815430,-0.314941,0.638916,-0.061279
6.254004,-0.829102,0.249023,9.833008,-0.218506,0.673828,-0.052734
6.263325,-0.825195,0.253906,9.819336,-0.244873,0.621338,-0.043945
6.272645,-0.830078,0.249023,9.828125,-0.253662,0.621338,-0.043945
6.281965,-0.829102,0.259766,9.845703,-0.253662,0.638916,-0.035156
6.291286,-0.831055,0.257812,9.834961,-0.271240,0.612549,0.061035
6.300606,-0.825195,0.253906,9.822266,-0.218506,0.647705,-0.035156
6.309927,-0.840820,0.262695,9.843750,-0.279785,0.656250,-0.096436
6.319247,-0.831055,0.261719,9.829102,-0.209961,0.647705,-0.061279
6.328567,-0.831055,0.268555,9.816406,-0.253662,0.612549,-0.087646
6.337888,-0.836914,0.268555,9.819336,-0.253662,0.656250,-0.061279
6.347208,-0.826172,0.268555,9.821289,-0.209961,0.638916,0.008545
6.356529,-0.833984,0.266602,9.801758,-0.262451,0.621338,0.061035
6.365849,-0.831055,0.268555,9.806641,-0.332275,0.673828,-0.043945
6.375170,-0.833984,0.268555,9.795898,-0.279785,0.656250,0.017334
6.384490,-0.830078,0.278320,9.791992,-0.227295,0.665039,0.000000
6.393810,-0.835938,0.289062,9.800781,-0.201172,0.630127,0.000000
6.403131,-0.838867,0.268555,9.786133,-0.271240,0.603760,-0.026367
6.412451,-0.836914,0.292969,9.787109,-0.244873,0.656250,0.034912
6.421772,-0.830078,0.309570,9.789062,-0.236084,0.630127,0.034912
6.431092,-0.826172,0.279297,9.787109,-0.244873,0.612549,0.017334
6.440413,-0.824219,0.282227,9.784180,-0.227295,0.630127,-0.035156
6.449733,-0.821289,0.292969,9.782227,-0.323730,0.577637,0.017334
6.459053,-0.825195,0.288086,9.785156,-0.341064,0.700195,-0.008789
6.468374,-0.823242,0.272461,9.794922,-0.297363,0.656250,-0.087646
6.477694,-0.825195,0.294922,9.807617,-0.253662,0.700195,-0.017578
6.487015,-0.829102,0.283203,9.797852,-0.314941,0.595215,-0.017578
6.496335,-0.824219,0.269531,9.804688,-0.323730,0.682617,-0.078857
6.505656,-0.823242,0.284180,9.821289,-0.332275,0.665039,-0.026367
6.514976,-0.820312,0.280273,9.822266,-0.411133,0.612549,-0.017578
6.524296,-0.834961,0.272461,9.823242,-0.323730,0.603760,-0.017578
6.533617,-0.839844,0.273438,9.796875,-0.332275,0.630127,-0.026367
6.542937,-0.793945,0.103516,9.760742,-0.376221,0.603760,-0.017578
6.552258,-0.831055,0.452148,9.946289,-0.227295,0.708984,0.069824
6.561578,-0.826172,0.224609,9.847656,-0.411133,0.595215,0.008545
6.570898,-0.818359,0.166016,9.745117,-0.367432,0.656250,-0.061279
6.580219,-0.830078,0.355469,9.823242,-0.253662,0.700195,0.069824
6.589539,-0.844727,0.249023,9.863281,-0.323730,0.568848,-0.008789
6.598860,-0.820312,0.181641,9.791992,-0.332275,0.595215,-0.052734
6.608180,-0.817383,0.328125,9.810547,-0.201172,0.630127,0.061035
6.617501,-0.840820,0.288086,9.837891,-0.306152,0.603760,0.008545
6.626821,-0.824219,0.199219,9.780273,-0.297363,0.638916,-0.052734
6.636141,-0.838867,0.277344,9.791992,-0.122314,0.673828,0.052490
6.645462,-0.834961,0.289062,9.799805,-0.262451,0.647705,-0.008789
6.654782,-0.834961,0.220703,9.805664,-0.306152,0.595215,-0.061279
6.664103,-0.820312,0.283203,9.781250,-0.314941,0.577637,-0.008789
6.673423,-0.824219,0.289062,9.791016,-0.323730,0.542725,0.017334
6.682744,-0.840820,0.242188,9.789062,-0.341064,0.577637,-0.043945
6.692064,-0.830078,0.279297,9.780273,-0.271240,0.673828,-0.035156
6.701384,-0.828125,0.293945,9.776367,-0.314941,0.682617,0.017334
6.710705,-0.839844,0.256836,9.802734,-0.306152,0.630127,-0.008789
6.720025,-0.828125,0.274414,9.787109,-0.253662,0.612549,-0.017578
6.729346,-0.826172,0.291016,9.782227,-0.288574,0.647705,-0.035156
6.738666,-0.820312,0.252930,9.800781,-0.297363,0.586426,-0.035156
6.747987,-0.825195,0.266602,9.805664,-0.227295,0.595215,-0.008789
6.757307,-0.813477,0.293945,9.796875,-0.122314,0.612549,0.017334
6.766627,-0.825195,0.275391,9.812500,-0.218506,0.612549,-0.008789
6.775948,-0.833984,0.266602,9.811523,-0.227295,0.630127,-0.008789
6.785268,-0.824219,0.280273,9.800781,-0.157471,0.647705,-0.017578
6.794589,-0.830078,0.259766,9.813477,-0.306152,0.682617,-0.026367
6.803909,-0.834961,0.280273,9.836914,-0.262451,0.630127,-0.035156
6.813229,-0.826172,0.284180,9.822266,-0.332275,0.586426,-0.008789
6.822550,-0.820312,0.278320,9.818359,-0.288574,0.647705,-0.035156
6.831870,-0.821289,0.290039,9.826172,-0.306152,0.656250,-0.017578
6.841191,-0.852539,0.300781,9.816406,-0.236084,0.621338,-0.043945
6.850511,-0.840820,0.264648,9.769531,-0.306152,0.595215,-0.078857
6.859832,-0.835938,0.258789,9.938477,-0.314941,0.612549,-0.087646
6.869152,-0.795898,0.205078,9.775391,-0.358643,0.507568,-0.017578
6.878472,-0.814453,0.249023,9.697266,-0.253662,0.656250,0.078613
6.887793,-0.872070,0.401367,9.852539,-0.157471,0.761475,0.069824
6.897113,-0.841797,0.283203,9.819336,-0.297363,0.568848,-0.043945
6.906434,-0.791016,0.224609,9.757812,-0.341064,0.551270,-0.026367
6.915754,-0.844727,0.289062,9.810547,-0.384766,0.603760,-0.087646
6.925075,-0.825195,0.261719,9.778320,-0.419922,0.568848,-0.070068
6.934395,-0.797852,0.255859,9.795898,-0.367432,0.551270,-0.087646
6.943715,-0.818359,0.250977,9.819336,-0.349854,0.603760,-0.078857
6.953036,-0.841797,0.269531,9.804688,-0.297363,0.673828,-0.078857
6.962356,-0.793945,0.232422,9.775391,-0.279785,0.638916,-0.043945
6.971677,-0.821289,0.232422,9.774414,-0.332275,0.621338,-0.052734
6.980997,-0.836914,0.250977,9.828125,-0.183594,0.656250,0.000000
6.990318,-0.829102,0.266602,9.880859,-0.201172,0.630127,0.034912
6.999638,-0.796875,0.284180,9.858398,-0.236084,0.603760,0.043701
7.008958,-0.833008,0.226562,9.712891,-0.288574,0.612549,0.008545
7.018279,-0.829102,0.268555,9.789062,-0.297363,0.647705,-0.035156
7.027599,-0.818359,0.255859,9.829102,-0.349854,0.638916,-0.008789
7.036920,-0.821289,0.237305,9.815430,-0.306152,0.717529,-0.026367
7.046240,-0.845703,0.257812,9.821289,-0.279785,0.621338,-0.043945
7.055560,-0.833984,0.300781,9.797852,-0.253662,0.638916,0.026123
7.064881,-0.836914,0.278320,9.817383,-0.244873,0.700195,-0.052734
7.074201,-0.851562,0.277344,9.822266,-0.253662,0.682617,-0.008789
7.083522,-0.829102,0.296875,9.801758,-0.262451,0.638916,-0.017578
7.092842,-0.841797,0.283203,9.802734,-0.323730,0.586426,-0.035156
7.102163,-0.835938,0.273438,9.799805,-0.297363,0.638916,0.026123
7.111483,-0.856445,0.336914,9.818359,-0.271240,0.717529,0.017334
7.120803,-0.828125,0.291016,9.832031,-0.279785,0.595215,-0.026367
7.130124,-0.840820,0.292969,9.811523,-0.314941,0.665039,-0.052734
7.139444,-0.834961,0.331055,9.752930,-0.227295,0.621338,-0.096436
7.148765,-0.828125,0.285156,9.776367,-0.341064,0.595215,-0.087646
7.158085,-0.838867,0.274414,9.778320,-0.332275,0.603760,-0.078857
7.167406,-0.839844,0.305664,9.800781,-0.209961,0.577637,-0.043945
7.176726,-0.831055,0.291016,9.802734,-0.288574,0.560059,-0.070068
7.186046,-0.817383,0.257812,9.792969,-0.332275,0.577637,-0.113770
7.195367,-0.835938,0.288086,9.791992,-0.402344,0.542725,-0.026367
7.204687,-0.828125,0.279297,9.821289,-0.288574,0.621338,0.026123
7.214008,-0.820312,0.248047,9.807617,-0.332275,0.630127,0.017334
7.223328,-0.814453,0.255859,9.816406,-0.332275,0.621338,0.000000
7.232649,-0.829102,0.251953,9.816406,-0.314941,0.656250,-0.035156
7.241969,-0.808594,0.240234,9.827148,-0.271240,0.586426,-0.017578
7.251289,-0.823242,0.229492,9.837891,-0.314941,0.603760,0.008545
7.260610,-0.829102,0.258789,9.819336,-0.262451,0.638916,-0.035156
7.269930,-0.825195,0.248047,9.828125,-0.323730,0.630127,-0.078857
7.279251,-0.820312,0.204102,9.823242,-0.306152,0.612549,0.000000
7.288571,-0.823242,0.247070,9.815430,-0.253662,0.656250,0.008545
7.297891,-0.831055,0.255859,9.819336,-0.174805,0.708984,-0.026367
7.307212,-0.813477,0.199219,9.785156,-0.227295,0.595215,0.008545
7.316532,-0.824219,0.250977,9.799805,-0.192383,0.568848,0.000000
7.325853,-0.835938,0.267578,9.833008,-0.174805,0.630127,0.017334
7.335173,-0.818359,0.246094,9.776367,-0.227295,0.612549,-0.017578
7.344494,-0.825195,0.250977,9.787109,-0.201172,0.638916,-0.026367
7.353814,-0.826172,0.273438,9.794922,-0.288574,0.682617,-0.061279
7.363134,-0.833008,0.273438,9.794922,-0.253662,0.638916,-0.017578
7.372455,-0.826172,0.264648,9.784180,-0.244873,0.603760,-0.052734
7.381775,-0.825195,0.273438,9.792969,-0.279785,0.612549,0.008545
7.391096,-0.836914,0.311523,9.822266,-0.139893,0.638916,-0.043945
7.400416,-0.813477,0.274414,9.779297,-0.209961,0.551270,-0.087646
7.409737,-0.824219,0.291016,9.791992,-0.262451,0.595215,-0.026367
7.419057,-0.847656,0.307617,9.811523,-0.201172,0.682617,0.000000
7.428377,-0.819336,0.282227,9.794922,-0.209961,0.612549,-0.026367
7.437698,-0.833008,0.309570,9.810547,-0.183594,0.577637,-0.043945
7.447018,-0.846680,0.299805,9.821289,-0.279785,0.638916,-0.035156
7.456339,-0.830078,0.289062,9.795898,-0.253662,0.656250,-0.078857
7.465659,-0.821289,0.298828,9.800781,-0.271240,0.665039,-0.035156
7.474980,-0.843750,0.289062,9.830078,-0.341064,0.682617,-0.052734
7.484300,-0.814453,0.285156,9.797852,-0.288574,0.630127,-0.026367
7.493620,-0.814453,0.290039,9.800781,-0.341064,0.682617,-0.061279
7.502941,-0.844727,0.289062,9.833008,-0.297363,0.673828,-0.035156
7.512261,-0.828125,0.275391,9.801758,-0.393555,0.603760,-0.026367
7.521582,-0.823242,0.270508,9.817383,-0.411133,0.612549,-0.078857
7.530902,-0.835938,0.280273,9.815430,-0.332275,0.542725,0.000000
7.540223,-0.830078,0.270508,9.819336,-0.349854,0.621338,-0.087646
7.549543,-0.820312,0.258789,9.815430,-0.323730,0.595215,-0.035156
7.558863,-0.826172,0.261719,9.808594,-0.271240,0.630127,0.000000
7.568184,-0.833008,0.261719,9.817383,-0.271240,0.673828,-0.078857
7.577504,-0.825195,0.248047,9.823242,-0.297363,0.647705,-0.052734
7.586825,-0.826172,0.261719,9.813477,-0.253662,0.621338,0.000000
7.596145,-0.825195,0.255859,9.811523,-0.271240,0.638916,-0.078857
7.605465,-0.826172,0.247070,9.811523,-0.218506,0.612549,-0.070068
7.614786,-0.813477,0.261719,9.800781,-0.253662,0.621338,0.017334
7.624106,-0.838867,0.258789,9.810547,-0.402344,0.612549,-0.035156
7.633427,-0.809570,0.255859,9.794922,-0.437256,0.568848,-0.078857
7.642747,-0.829102,0.256836,9.775391,-0.341064,0.656250,-0.052734
7.652068,-0.839844,0.267578,9.810547,-0.262451,0.700195,-0.035156
7.661388,-0.815430,0.256836,9.791016,-0.253662,0.621338,-0.026367
7.670708,-0.820312,0.264648,9.765625,-0.341064,0.560059,0.026123
7.680029,-0.850586,0.267578,9.805664,-0.271240,0.560059,-0.043945
7.689349,-0.810547,0.264648,9.785156,-0.201172,0.568848,-0.061279
7.698670,-0.828125,0.277344,9.792969,-0.288574,0.638916,0.000000
7.707990,-0.839844,0.273438,9.806641,-0.297363,0.612549,-0.008789
7.717311,-0.833984,0.275391,9.806641,-0.271240,0.612549,0.017334
7.726631,-0.826172,0.286133,9.797852,-0.201172,0.638916,0.008545
7.735951,-0.834961,0.283203,9.817383,-0.236084,0.621338,-0.052734
7.745272,-0.823242,0.280273,9.801758,-0.201172,0.621338,-0.061279
7.754592,-0.818359,0.286133,9.795898,-0.236084,0.560059,-0.070068
7.763913,-0.838867,0.285156,9.836914,-0.297363,0.603760,-0.008789
7.773233,-0.831055,0.289062,9.810547,-0.262451,0.612549,-0.043945
7.782554,-0.831055,0.284180,9.804688,-0.201172,0.586426,-0.026367
7.791874,-0.836914,0.283203,9.837891,-0.306152,0.638916,-0.035156
7.801194,-0.833008,0.278320,9.815430,-0.323730,0.568848,-0.052734
7.810515,-0.830078,0.275391,9.816406,-0.323730,0.603760,-0.035156
7.819835,-0.841797,0.275391,9.834961,-0.288574,0.612549,-0.026367
7.829156,-0.862305,0.259766,9.813477,-0.244873,0.551270,-0.061279
7.838476,-0.844727,0.268555,9.823242,-0.262451,0.525146,-0.026367
7.847796,-0.860352,0.235352,9.806641,-0.262451,0.560059,0.008545
7.857117,-0.865234,0.249023,9.859375,-0.244873,0.621338,-0.026367
7.866437,-0.873047,0.243164,9.847656,-0.297363,0.577637,-0.052734
7.875758,-0.854492,0.226562,9.854492,-0.227295,0.577637,-0.026367
7.885078,-0.873047,0.210938,9.794922,-0.236084,0.577637,-0.008789
7.894399,-0.851562,0.242188,9.794922,-0.201172,0.525146,0.017334
7.903719,-0.849609,0.211914,9.871094,-0.174805,0.551270,0.087402
7.913039,-0.841797,0.208984,9.830078,-0.131104,0.542725,0.000000
7.922360,-0.815430,0.242188,9.804688,-0.104980,0.560059,0.008545
7.931680,-0.809570,0.230469,9.787109,-0.043701,0.560059,-0.008789
7.941001,-0.797852,0.225586,9.789062,-0.078613,0.498779,0.034912
7.950321,-0.784180,0.243164,9.794922,-0.069824,0.586426,0.008545
7.959642,-0.778320,0.249023,9.771484,-0.087402,0.577637,-0.070068
7.968962,-0.764648,0.258789,9.760742,-0.131104,0.551270,-0.026367
7.978282,-0.747070,0.259766,9.758789,-0.183594,0.560059,0.017334
7.987603,-0.750977,0.284180,9.753906,-0.148682,0.577637,-0.035156
7.996923,-0.750000,0.292969,9.751953,-0.183594,0.612549,-0.026367
8.006244,-0.753906,0.300781,9.770508,-0.183594,0.621338,-0.035156
8.015564,-0.765625,0.310547,9.759766,-0.087402,0.595215,-0.043945
8.024885,-0.776367,0.332031,9.763672,-0.139893,0.726318,-0.105225
8.034205,-0.787109,0.341797,9.787109,-0.201172,0.743896,-0.061279
8.043525,-0.799805,0.344727,9.780273,-0.209961,0.743896,-0.035156
8.052846,-0.828125,0.365234,9.775391,-0.227295,0.708984,-0.035156
8.062166,-0.834961,0.365234,9.806641,-0.209961,0.717529,-0.026367
8.071487,-0.850586,0.370117,9.801758,-0.262451,0.778809,-0.078857
8.080807,-0.862305,0.369141,9.816406,-0.288574,0.778809,-0.052734
8.090127,-0.873047,0.369141,9.815430,-0.297363,0.770020,-0.017578
8.099448,-0.872070,0.375000,9.817383,-0.297363,0.770020,-0.008789
8.108768,-0.889648,0.347656,9.833984,-0.393555,0.761475,0.034912
8.118089,-0.909180,0.347656,9.869141,-0.376221,0.752686,0.052490
8.127409,-0.876953,0.326172,9.830078,-0.446045,0.735107,0.034912
8.136730,-0.884766,0.316406,9.818359,-0.481201,0.735107,0.008545
8.146050,-0.883789,0.315430,9.794922,-0.463623,0.700195,0.026123
8.155370,-0.917969,0.230469,9.938477,-0.524902,0.673828,-0.017578
8.164691,-0.839844,0.279297,9.847656,-0.551025,0.656250,-0.008789
8.174011,-0.841797,0.274414,9.764648,-0.629883,0.735107,-0.008789
8.183332,-0.900391,0.168945,9.859375,-0.594971,0.665039,-0.026367
8.192652,-0.802734,0.209961,9.852539,-0.542480,0.568848,-0.070068
8.201973,-0.825195,0.224609,9.833008,-0.533691,0.612549,-0.131348
8.211293,-0.854492,0.158203,9.799805,-0.454834,0.630127,-0.061279
8.220613,-0.791992,0.194336,9.802734,-0.402344,0.525146,-0.017578
8.229934,-0.795898,0.181641,9.828125,-0.367432,0.577637,-0.087646
8.239254,-0.815430,0.179688,9.784180,-0.428711,0.533936,-0.061279
8.248575,-0.792969,0.184570,9.811523,-0.314941,0.603760,-0.131348
8.257895,-0.762695,0.194336,9.768555,-0.279785,0.577637,-0.087646
8.267216,-0.806641,0.199219,9.813477,-0.244873,0.638916,-0.052734
8.276536,-0.783203,0.208008,9.779297,-0.227295,0.603760,-0.061279
8.285856,-0.782227,0.216797,9.764648,-0.227295,0.603760,-0.061279
8.295177,-0.802734,0.237305,9.774414,-0.209961,0.621338,0.043701
8.304497,-0.814453,0.249023,9.781250,-0.157471,0.656250,0.008545
8.313818,-0.795898,0.251953,9.786133,-0.122314,0.656250,-0.017578
8.323138,-0.819336,0.277344,9.774414,-0.174805,0.621338,0.017334
8.332458,-0.845703,0.274414,9.791992,-0.148682,0.700195,0.061035
8.341779,-0.823242,0.284180,9.771484,-0.157471,0.647705,0.026123
8.351099,-0.854492,0.288086,9.797852,-0.166016,0.665039,-0.026367
8.360420,-0.844727,0.299805,9.792969,-0.174805,0.647705,-0.035156
8.369740,-0.852539,0.299805,9.789062,-0.192383,0.577637,0.008545
8.379061,-0.871094,0.315430,9.828125,-0.166016,0.586426,0.017334
8.388381,-0.856445,0.307617,9.797852,-0.148682,0.656250,0.008545
8.397701,-0.863281,0.322266,9.817383,-0.192383,0.621338,0.008545
8.407022,-0.844727,0.289062,9.787109,-0.209961,0.612549,0.026123
8.416342,-0.876953,0.337891,9.829102,-0.183594,0.595215,-0.061279
8.425663,-0.893555,0.275391,9.875977,-0.288574,0.560059,-0.061279
8.434983,-0.798828,0.314453,9.742188,-0.297363,0.533936,-0.096436
8.444304,-0.904297,0.314453,9.875000,-0.314941,0.656250,-0.122559
8.453624,-0.863281,0.278320,9.838867,-0.323730,0.542725,0.008545
8.462944,-0.803711,0.311523,9.782227,-0.367432,0.490234,-0.008789
8.472265,-0.867188,0.267578,9.856445,-0.323730,0.551270,-0.061279
8.481585,-0.846680,0.291016,9.824219,-0.297363,0.560059,-0.105225
8.490906,-0.796875,0.264648,9.821289,-0.341064,0.568848,-0.008789
8.500226,-0.820312,0.273438,9.816406,-0.332275,0.621338,-0.017578
8.509547,-0.836914,0.245117,9.806641,-0.306152,0.568848,0.034912
8.518867,-0.776367,0.255859,9.779297,-0.227295,0.560059,-0.017578
8.528187,-0.809570,0.262695,9.823242,-0.236084,0.638916,0.017334
8.537508,-0.808594,0.233398,9.808594,-0.358643,0.612549,0.017334
8.546828,-0.769531,0.226562,9.765625,-0.376221,0.507568,0.043701
8.556149,-0.796875,0.243164,9.800781,-0.384766,0.542725,0.034912
8.565469,-0.793945,0.231445,9.802734,-0.262451,0.533936,0.000000
8.574789,-0.782227,0.235352,9.776367,-0.271240,0.586426,-0.035156
8.584110,-0.791992,0.242188,9.787109,-0.227295,0.665039,0.008545
8.593430,-0.834961,0.250977,9.833008,-0.279785,0.673828,0.008545
8.602751,-0.784180,0.245117,9.762695,-0.253662,0.630127,-0.017578
8.612071,-0.814453,0.262695,9.807617,-0.253662,0.665039,-0.052734
8.621392,-0.824219,0.263672,9.808594,-0.227295,0.612549,-0.061279
8.630712,-0.807617,0.270508,9.785156,-0.201172,0.595215,-0.078857
8.640032,-0.839844,0.289062,9.818359,-0.253662,0.656250,-0.043945
8.649353,-0.833984,0.280273,9.813477,-0.236084,0.595215,-0.043945
8.658673,-0.834961,0.293945,9.806641,-0.244873,0.621338,-0.043945
8.667994,-0.844727,0.307617,9.806641,-0.236084,0.682617,-0.087646
8.677314,-0.858398,0.300781,9.816406,-0.279785,0.656250,-0.043945
8.686635,-0.844727,0.309570,9.807617,-0.253662,0.673828,0.017334
8.695955,-0.846680,0.307617,9.792969,-0.253662,0.665039,0.026123
8.705275,-0.865234,0.310547,9.818359,-0.227295,0.638916,-0.026367
8.714596,-0.861328,0.304688,9.802734,-0.323730,0.630127,0.034912
8.723916,-0.855469,0.296875,9.810547,-0.349854,0.682617,0.026123
8.733237,-0.845703,0.285156,9.817383,-0.288574,0.630127,0.069824
8.742557,-0.856445,0.283203,9.819336,-0.341064,0.603760,0.026123
8.751878,-0.835938,0.273438,9.802734,-0.341064,0.577637,0.043701
8.761198,-0.849609,0.274414,9.818359,-0.367432,0.621338,0.034912
8.770518,-0.826172,0.257812,9.819336,-0.297363,0.612549,-0.026367
8.779839,-0.826172,0.252930,9.816406,-0.253662,0.621338,0.000000
8.789159,-0.818359,0.255859,9.789062,-0.288574,0.603760,0.000000
8.798480,-0.813477,0.257812,9.805664,-0.262451,0.621338,-0.070068
8.807800,-0.825195,0.246094,9.812500,-0.297363,0.621338,0.000000
8.817121,-0.813477,0.259766,9.804688,-0.271240,0.586426,0.000000
8.826441,-0.823242,0.251953,9.780273,-0.244873,0.638916,-0.061279
8.835761,-0.826172,0.237305,9.816406,-0.297363,0.647705,-0.043945
8.845082,-0.782227,0.283203,9.770508,-0.279785,0.638916,-0.026367
8.854402,-0.865234,0.231445,9.855469,-0.314941,0.665039,-0.070068
8.863723,-0.750000,0.275391,9.749023,-0.341064,0.577637,-0.078857
8.873043,-0.880859,0.240234,9.843750,-0.279785,0.656250,-0.026367
8.882363,-0.770508,0.272461,9.714844,-0.297363,0.612549,-0.026367
8.891684,-0.828125,0.243164,9.852539,-0.218506,0.673828,0.017334
8.901004,-0.809570,0.243164,9.804688,-0.227295,0.630127,-0.043945
8.910325,-0.783203,0.294922,9.749023,-0.192383,0.647705,-0.026367
8.919645,-0.851562,0.253906,9.833008,-0.183594,0.638916,-0.026367
8.928966,-0.784180,0.262695,9.779297,-0.253662,0.612549,-0.008789
8.938286,-0.833984,0.264648,9.802734,-0.166016,0.665039,-0.026367
8.947606,-0.824219,0.288086,9.789062,-0.148682,0.700195,-0.017578
8.956927,-0.820312,0.262695,9.801758,-0.288574,0.621338,0.000000
8.966247,-0.833984,0.288086,9.817383,-0.262451,0.630127,0.008545
8.975568,-0.828125,0.280273,9.804688,-0.279785,0.691406,-0.026367
8.984888,-0.847656,0.279297,9.816406,-0.244873,0.630127,-0.026367
8.994209,-0.846680,0.274414,9.816406,-0.297363,0.612549,0.008545
9.003529,-0.844727,0.295898,9.824219,-0.297363,0.577637,-0.078857
9.012849,-0.852539,0.273438,9.817383,-0.253662,0.568848,-0.035156
9.022170,-0.850586,0.295898,9.807617,-0.279785,0.595215,0.000000
9.031490,-0.871094,0.279297,9.824219,-0.244873,0.603760,-0.026367
9.040811,-0.843750,0.277344,9.806641,-0.279785,0.621338,-0.043945
9.050131,-0.857422,0.279297,9.833008,-0.376221,0.560059,-0.061279
9.059452,-0.843750,0.285156,9.815430,-0.358643,0.595215,-0.008789
9.068772,-0.845703,0.275391,9.810547,-0.306152,0.595215,0.034912
9.078092,-0.831055,0.280273,9.821289,-0.262451,0.638916,-0.026367
9.087413,-0.839844,0.284180,9.816406,-0.323730,0.638916,0.000000
9.096733,-0.823242,0.274414,9.797852,-0.323730,0.542725,0.052490
9.106054,-0.820312,0.262695,9.800781,-0.297363,0.595215,-0.043945
9.115374,-0.826172,0.273438,9.813477,-0.332275,0.577637,-0.008789
9.124694,-0.802734,0.272461,9.789062,-0.323730,0.542725,-0.017578
9.134015,-0.802734,0.247070,9.807617,-0.279785,0.586426,-0.026367
9.143335,-0.798828,0.259766,9.790039,-0.341064,0.621338,0.000000
9.152656,-0.812500,0.258789,9.799805,-0.367432,0.638916,0.000000
9.161976,-0.802734,0.251953,9.800781,-0.314941,0.577637,-0.061279
9.171297,-0.810547,0.258789,9.805664,-0.297363,0.638916,-0.052734
9.180617,-0.799805,0.256836,9.786133,-0.306152,0.621338,0.000000
9.189937,-0.812500,0.269531,9.791016,-0.314941,0.630127,-0.035156
9.199258,-0.792969,0.270508,9.790039,-0.279785,0.682617,-0.061279
9.208578,-0.831055,0.259766,9.782227,-0.244873,0.682617,-0.061279
9.217899,-0.812500,0.278320,9.789062,-0.332275,0.621338,-0.105225
9.227219,-0.818359,0.251953,9.821289,-0.306152,0.665039,-0.043945
9.236540,-0.836914,0.282227,9.802734,-0.297363,0.673828,-0.070068
9.245860,-0.821289,0.263672,9.773438,-0.306152,0.708984,-0.078857
9.255180,-0.836914,0.288086,9.819336,-0.244873,0.647705,-0.113770
9.264501,-0.840820,0.274414,9.818359,-0.323730,0.665039,-0.078857
9.273821,-0.843750,0.272461,9.810547,-0.306152,0.656250,-0.043945
9.283142,-0.843750,0.290039,9.792969,-0.201172,0.673828,0.008545
9.292462,-0.852539,0.272461,9.847656,-0.306152,0.682617,-0.017578
9.301783,-0.865234,0.290039,9.822266,-0.376221,0.568848,-0.017578
9.311103,-0.857422,0.275391,9.815430,-0.209961,0.612549,0.026123
9.320423,-0.873047,0.275391,9.830078,-0.192383,0.665039,-0.026367
9.329744,-0.852539,0.280273,9.823242,-0.209961,0.656250,0.043701
9.339064,-0.868164,0.282227,9.833008,-0.227295,0.665039,0.043701
9.348385,-0.850586,0.282227,9.805664,-0.279785,0.542725,-0.017578
9.357705,-0.851562,0.258789,9.838867,-0.271240,0.586426,0.017334
9.367025,-0.846680,0.285156,9.811523,-0.271240,0.603760,0.000000
9.376346,-0.839844,0.262695,9.805664,-0.227295,0.586426,-0.017578
9.385666,-0.841797,0.253906,9.802734,-0.244873,0.621338,-0.017578
9.394987,-0.835938,0.267578,9.801758,-0.236084,0.586426,-0.035156
9.404307,-0.819336,0.263672,9.806641,-0.253662,0.586426,-0.070068
9.413628,-0.812500,0.253906,9.786133,-0.323730,0.647705,-0.078857
9.422948,-0.814453,0.275391,9.791992,-0.227295,0.595215,-0.070068
9.432268,-0.802734,0.251953,9.790039,-0.209961,0.577637,-0.052734
9.441589,-0.803711,0.263672,9.786133,-0.253662,0.603760,-0.078857
9.450909,-0.798828,0.274414,9.787109,-0.253662,0.656250,0.000000
9.460230,-0.801758,0.262695,9.773438,-0.288574,0.621338,0.026123
9.469550,-0.791016,0.266602,9.787109,-0.297363,0.647705,-0.052734
9.478871,-0.797852,0.286133,9.781250,-0.244873,0.647705,-0.017578
9.488191,-0.786133,0.275391,9.791016,-0.236084,0.647705,-0.008789
9.497511,-0.804688,0.275391,9.806641,-0.148682,0.621338,-0.061279
9.506832,-0.812500,0.284180,9.786133,-0.236084,0.665039,0.008545
9.516152,-0.813477,0.280273,9.791992,-0.209961,0.647705,0.061035
9.525473,-0.808594,0.263672,9.811523,-0.192383,0.638916,-0.008789
9.534793,-0.817383,0.293945,9.807617,-0.104980,0.656250,0.008545
9.544114,-0.824219,0.283203,9.811523,-0.236084,0.603760,0.026123
9.553434,-0.833008,0.291016,9.818359,-0.192383,0.682617,0.061035
9.562754,-0.830078,0.289062,9.822266,-0.174805,0.638916,0.061035
9.572075,-0.838867,0.284180,9.806641,-0.174805,0.630127,-0.026367
9.581395,-0.841797,0.289062,9.815430,-0.218506,0.586426,-0.008789
9.590716,-0.847656,0.284180,9.817383,-0.218506,0.568848,-0.087646
9.600036,-0.854492,0.286133,9.815430,-0.174805,0.621338,-0.008789
9.609356,-0.843750,0.273438,9.819336,-0.236084,0.612549,0.000000
9.618677,-0.850586,0.273438,9.818359,-0.279785,0.595215,0.017334
9.627997,-0.855469,0.277344,9.821289,-0.297363,0.612549,0.000000
9.637318,-0.841797,0.270508,9.796875,-0.384766,0.621338,-0.043945
9.646638,-0.854492,0.280273,9.811523,-0.358643,0.630127,-0.043945
9.655959,-0.839844,0.272461,9.802734,-0.192383,0.612549,-0.043945
9.665279,-0.841797,0.273438,9.801758,-0.227295,0.595215,0.034912
9.674599,-0.831055,0.273438,9.807617,-0.288574,0.621338,-0.035156
9.683920,-0.835938,0.263672,9.802734,-0.253662,0.673828,0.000000
9.693240,-0.831055,0.270508,9.800781,-0.314941,0.647705,0.000000
9.702561,-0.828125,0.267578,9.808594,-0.288574,0.586426,0.017334
9.711881,-0.833008,0.259766,9.808594,-0.244873,0.612549,-0.026367
9.721202,-0.824219,0.274414,9.805664,-0.218506,0.577637,-0.061279
9.730522,-0.815430,0.270508,9.810547,-0.297363,0.630127,0.017334
9.739842,-0.824219,0.259766,9.806641,-0.236084,0.630127,0.000000
9.749163,-0.818359,0.270508,9.806641,-0.236084,0.673828,0.026123
9.758483,-0.819336,0.270508,9.821289,-0.218506,0.612549,-0.026367
9.767804,-0.808594,0.264648,9.805664,-0.236084,0.586426,-0.052734
9.777124,-0.817383,0.263672,9.791992,-0.279785,0.656250,0.008545
9.786445,-0.824219,0.267578,9.817383,-0.262451,0.560059,0.000000
9.795765,-0.804688,0.251953,9.799805,-0.227295,0.612549,0.026123
9.805085,-0.818359,0.273438,9.800781,-0.183594,0.700195,-0.035156
9.814406,-0.823242,0.263672,9.811523,-0.174805,0.665039,0.000000
9.823726,-0.814453,0.264648,9.795898,-0.192383,0.665039,-0.078857
9.833047,-0.818359,0.264648,9.799805,-0.227295,0.656250,-0.017578
9.842367,-0.820312,0.288086,9.779297,-0.244873,0.691406,0.026123
9.851687,-0.835938,0.261719,9.812500,-0.157471,0.647705,0.008545
9.861008,-0.871094,0.280273,9.754883,-0.183594,0.647705,0.026123
9.870328,-0.910156,0.286133,9.786133,-0.332275,0.656250,0.043701
9.879649,-0.903320,0.273438,9.824219,-0.288574,0.682617,0.017334
9.888969,-0.887695,0.292969,9.824219,-0.166016,0.673828,-0.035156
9.898290,-0.873047,0.280273,9.763672,-0.218506,0.656250,0.000000
9.907610,-0.886719,0.272461,9.812500,-0.279785,0.682617,-0.043945
9.916930,-0.877930,0.279297,9.823242,-0.201172,0.778809,-0.096436
9.926251,-0.882812,0.288086,9.818359,-0.201172,0.717529,-0.017578
9.935571,-0.882812,0.266602,9.823242,-0.183594,0.735107,0.034912
9.944892,-0.791016,0.306641,9.797852,-0.183594,0.778809,0.017334
9.954212,-0.770508,0.304688,9.875000,-0.096191,0.743896,0.061035
9.963533,-0.707031,0.298828,9.810547,-0.218506,0.595215,0.061035
9.972853,-0.740234,0.284180,9.896484,-0.297363,0.638916,0.043701
9.982173,-0.677734,0.307617,9.833008,-0.192383,0.630127,0.069824
9.991494,-0.727539,0.280273,9.813477,-0.244873,0.638916,0.122314
10.000814,-0.671875,0.310547,9.819336,-0.297363,0.516357,0.069824
10.010135,-0.693359,0.250977,9.875977,-0.323730,0.533936,0.131104
10.019455,-0.570312,0.300781,9.816406,-0.323730,0.551270,0.087402
10.028776,-0.606445,0.266602,9.821289,-0.393555,0.490234,0.078613
10.038096,-0.514648,0.144531,9.774414,-0.341064,0.481445,0.113525
10.047416,-0.658203,0.377930,10.013672,-0.218506,0.472656,-0.008789
10.056737,-0.558594,0.230469,9.616211,-0.314941,0.385010,-0.008789
10.066057,-0.653320,0.174805,9.842773,-0.262451,0.516357,-0.061279
10.075378,-0.570312,0.305664,9.976562,-0.174805,0.533936,-0.026367
10.084698,-0.562500,0.286133,9.679688,-0.236084,0.472656,-0.122559
10.094019,-0.680664,0.171875,9.829102,-0.253662,0.621338,-0.122559
10.103339,-0.607422,0.275391,9.848633,-0.209961,0.586426,-0.026367
10.112659,-0.699219,0.328125,9.864258,-0.227295,0.717529,-0.078857
10.121980,-0.645508,0.201172,9.716797,-0.271240,0.708984,-0.035156
10.131300,-0.621094,0.258789,9.843750,-0.236084,0.735107,-0.061279
10.140621,-0.521484,0.251953,9.887695,-0.218506,0.770020,-0.131348
10.149941,-0.473633,0.250977,9.859375,-0.262451,0.813965,-0.166260
10.159261,-0.419922,0.266602,9.791992,-0.227295,0.717529,-0.061279
10.168582,-0.419922,0.309570,9.965820,-0.314941,0.770020,-0.070068
10.177902,-0.415039,0.248047,9.818359,-0.244873,0.796387,-0.087646
10.187223,-0.370117,0.268555,9.842773,-0.262451,0.813965,-0.035156
10.196543,-0.353516,0.295898,9.842773,-0.244873,0.717529,0.052490
10.205864,-0.330078,0.304688,9.856445,-0.148682,0.673828,0.008545
10.215184,-0.339844,0.292969,9.838867,-0.209961,0.700195,0.034912
10.224504,-0.332031,0.268555,9.843750,-0.122314,0.621338,0.008545
10.233825,-0.335938,0.296875,9.812500,-0.201172,0.603760,0.052490
10.243145,-0.329102,0.290039,9.796875,-0.148682,0.551270,0.078613
10.252466,-0.354492,0.316406,9.817383,-0.183594,0.595215,0.043701
10.261786,-0.311523,0.288086,9.794922,-0.218506,0.586426,0.087402
10.271107,-0.298828,0.277344,9.821289,-0.131104,0.568848,0.096191
10.280427,-0.309570,0.272461,9.791992,-0.113525,0.560059,0.043701
10.289747,-0.276367,0.304688,9.782227,-0.104980,0.542725,0.104980
10.299068,-0.305664,0.278320,9.790039,-0.183594,0.533936,0.096191
10.308388,-0.274414,0.289062,9.806641,-0.166016,0.577637,0.017334
10.317709,-0.279297,0.275391,9.775391,-0.253662,0.551270,0.034912
10.327029,-0.258789,0.291016,9.795898,-0.244873,0.542725,-0.017578
10.336350,-0.256836,0.292969,9.794922,-0.166016,0.525146,0.026123
10.345670,-0.242188,0.292969,9.780273,-0.183594,0.542725,-0.026367
10.354990,-0.242188,0.295898,9.785156,-0.192383,0.542725,-0.026367
10.364311,-0.248047,0.284180,9.769531,-0.262451,0.516357,-0.026367
10.373631,-0.255859,0.312500,9.800781,-0.244873,0.551270,-0.035156
10.382952,-0.232422,0.319336,9.765625,-0.174805,0.586426,-0.052734
10.392272,-0.250977,0.311523,9.778320,-0.236084,0.560059,-0.087646
10.401592,-0.235352,0.309570,9.768555,-0.218506,0.542725,0.000000
10.410913,-0.242188,0.328125,9.780273,-0.227295,0.577637,-0.035156
10.420233,-0.234375,0.320312,9.779297,-0.244873,0.551270,0.034912
10.429554,-0.234375,0.312500,9.764648,-0.244873,0.568848,0.052490
10.438874,-0.244141,0.340820,9.786133,-0.262451,0.638916,0.026123
10.448195,-0.228516,0.333008,9.790039,-0.288574,0.647705,0.087402
10.457515,-0.228516,0.320312,9.785156,-0.227295,0.621338,0.096191
10.466835,-0.230469,0.332031,9.796875,-0.227295,0.717529,0.139893
10.476156,-0.220703,0.332031,9.778320,-0.323730,0.735107,0.131104
10.485476,-0.217773,0.326172,9.801758,-0.306152,0.665039,0.096191
10.494797,-0.229492,0.326172,9.795898,-0.244873,0.665039,0.148682
10.504117,-0.208008,0.316406,9.781250,-0.218506,0.691406,0.192383
10.513438,-0.197266,0.323242,9.799805,-0.314941,0.691406,0.192383
10.522758,-0.203125,0.311523,9.799805,-0.288574,0.673828,0.218506
10.532078,-0.205078,0.333984,9.791992,-0.157471,0.752686,0.209961
10.541399,-0.198242,0.303711,9.800781,-0.279785,0.770020,0.236084
10.550719,-0.208008,0.317383,9.812500,-0.306152,0.752686,0.236084
10.560040,-0.195312,0.325195,9.800781,-0.201172,0.726318,0.279785
10.569360,-0.204102,0.319336,9.827148,-0.297363,0.778809,0.271240
10.578681,-0.175781,0.328125,9.802734,-0.236084,0.787598,0.218506
10.588001,-0.186523,0.335938,9.816406,-0.262451,0.805176,0.227295
10.597321,-0.182617,0.333984,9.819336,-0.227295,0.778809,0.244873
10.606642,-0.175781,0.327148,9.818359,-0.236084,0.778809,0.218506
10.615962,-0.181641,0.348633,9.817383,-0.279785,0.752686,0.201172
10.625283,-0.178711,0.349609,9.821289,-0.166016,0.735107,0.279785
10.634603,-0.172852,0.360352,9.828125,-0.157471,0.805176,0.262451
10.643923,-0.170898,0.362305,9.812500,-0.209961,0.796387,0.314941
10.653244,-0.166992,0.383789,9.817383,-0.227295,0.787598,0.332275
10.662564,-0.162109,0.343750,9.832031,-0.209961,0.805176,0.271240
10.671885,-0.159180,0.373047,9.801758,-0.139893,0.761475,0.341064
10.681205,-0.178711,0.377930,9.823242,-0.174805,0.735107,0.358643
10.690526,-0.151367,0.380859,9.811523,-0.262451,0.796387,0.376221
10.699846,-0.145508,0.364258,9.797852,-0.218506,0.875000,0.463623
10.709166,-0.149414,0.374023,9.811523,-0.244873,0.857666,0.524902
10.718487,-0.144531,0.371094,9.816406,-0.218506,0.892578,0.489990
10.727807,-0.138672,0.351562,9.794922,-0.314941,0.936279,0.489990
10.737128,-0.141602,0.371094,9.800781,-0.288574,0.901367,0.586182
10.746448,-0.135742,0.348633,9.817383,-0.279785,0.936279,0.612305
10.755769,-0.138672,0.352539,9.818359,-0.314941,0.857666,0.559814
10.765089,-0.140625,0.369141,9.818359,-0.262451,0.857666,0.603516
10.774409,-0.133789,0.348633,9.826172,-0.271240,0.875000,0.612305
10.783730,-0.132812,0.351562,9.804688,-0.288574,0.910156,0.647461
10.793050,-0.139648,0.351562,9.822266,-0.218506,0.927734,0.647461
10.802371,-0.135742,0.364258,9.839844,-0.192383,0.918945,0.656006
10.811691,-0.130859,0.354492,9.818359,-0.218506,0.901367,0.594971
10.821012,-0.134766,0.367188,9.821289,-0.262451,0.866455,0.647461
10.830332,-0.125000,0.370117,9.806641,-0.218506,0.910156,0.682373
10.839652,-0.129883,0.355469,9.810547,-0.183594,0.980225,0.691162
10.848973,-0.133789,0.364258,9.815430,-0.174805,0.918945,0.726074
10.858293,-0.123047,0.386719,9.805664,-0.157471,0.875000,0.761230
10.867614,-0.124023,0.381836,9.818359,-0.227295,0.910156,0.778564
10.876934,-0.136719,0.378906,9.804688,-0.157471,0.901367,0.804932
10.886254,-0.117188,0.412109,9.789062,-0.104980,0.831299,0.874756
10.895575,-0.103516,0.402344,9.794922,-0.174805,0.901367,0.874756
10.904895,-0.128906,0.394531,9.821289,-0.104980,0.936279,0.857422
10.914216,-0.118164,0.433594,9.797852,-0.157471,0.892578,0.918701
10.923536,-0.103516,0.397461,9.786133,-0.148682,0.927734,0.979980
10.932857,-0.120117,0.397461,9.786133,-0.148682,0.971436,1.041016
10.942177,-0.104492,0.434570,9.800781,-0.157471,0.953857,1.023682
10.951497,-0.103516,0.422852,9.799805,-0.192383,0.953857,1.067383
10.960818,-0.122070,0.415039,9.812500,-0.183594,0.918945,1.137451
10.970138,-0.107422,0.444336,9.792969,-0.139893,0.840088,1.189941
10.979459,-0.103516,0.422852,9.816406,-0.279785,0.901367,1.286133
10.988779,-0.114258,0.411133,9.830078,-0.236084,0.918945,1.242432
10.998100,-0.110352,0.445312,9.821289,-0.192383,0.953857,1.294922
11.007420,-0.093750,0.426758,9.813477,-0.279785,0.953857,1.268555
11.016740,-0.109375,0.406250,9.818359,-0.236084,0.936279,1.294922
11.026061,-0.108398,0.401367,9.824219,-0.131104,0.927734,1.321045
11.035381,-0.096680,0.449219,9.826172,-0.113525,0.910156,1.294922
11.044702,-0.109375,0.375977,9.829102,-0.183594,0.936279,1.347412
11.054022,-0.096680,0.406250,9.816406,-0.227295,0.910156,1.391113
11.063343,-0.098633,0.417969,9.815430,-0.201172,0.892578,1.408691
11.072663,-0.081055,0.400391,9.837891,-0.157471,0.936279,1.417480
11.081983,-0.087891,0.392578,9.823242,-0.148682,0.918945,1.408691
11.091304,-0.045898,0.442383,9.789062,-0.148682,0.901367,1.461182
11.100624,-0.064453,0.417969,9.819336,-0.209961,0.945068,1.408691
11.109945,-0.044922,0.405273,9.815430,-0.262451,0.945068,1.469971
11.119265,-0.035156,0.471680,9.822266,-0.332275,0.901367,1.539795
11.128585,-0.036133,0.441406,9.828125,-0.236084,0.918945,1.592285
11.137906,-0.019531,0.437500,9.812500,-0.306152,0.875000,1.609863
11.147226,-0.007812,0.441406,9.807617,-0.306152,0.980225,1.697266
11.156547,0.000000,0.460938,9.829102,-0.236084,0.997559,1.671143
11.165867,-0.011719,0.454102,9.806641,-0.384766,0.892578,1.706055
11.175188,0.028320,0.468750,9.781250,-0.367432,0.883789,1.784912
11.184508,0.007812,0.466797,9.817383,-0.306152,0.936279,1.714844
11.193828,0.007812,0.441406,9.842773,-0.358643,0.927734,1.854980
11.203149,0.026367,0.454102,9.791016,-0.393555,0.883789,1.916016
11.212469,0.039062,0.473633,9.781250,-0.367432,0.857666,1.924805
11.221790,0.018555,0.422852,9.807617,-0.376221,0.936279,1.942383
11.231110,0.037109,0.434570,9.816406,-0.314941,0.927734,1.942383
11.240431,0.037109,0.427734,9.812500,-0.314941,0.936279,2.021240
11.249751,0.052734,0.420898,9.792969,-0.314941,0.945068,2.064941
11.259071,0.040039,0.415039,9.821289,-0.279785,0.980225,2.038574
11.268392,0.026367,0.410156,9.816406,-0.358643,1.032715,2.091064
11.277712,0.049805,0.396484,9.796875,-0.297363,1.015137,2.056152
11.287033,0.040039,0.375977,9.808594,-0.297363,1.050049,2.091064
11.296353,0.020508,0.405273,9.812500,-0.236084,0.953857,2.091064
11.305674,0.036133,0.385742,9.797852,-0.253662,0.971436,2.134766
11.314994,0.004883,0.378906,9.811523,-0.262451,1.041260,2.169922
11.324314,0.017578,0.410156,9.782227,-0.253662,1.085205,2.169922
11.333635,-0.012695,0.378906,9.790039,-0.218506,1.093750,2.196045
11.342955,-0.008789,0.355469,9.805664,-0.139893,1.111328,2.169922
11.352276,-0.025391,0.384766,9.778320,-0.157471,1.128906,2.178711
11.361596,-0.059570,0.399414,9.826172,-0.131104,1.102539,2.178711
11.370917,-0.021484,0.368164,9.769531,-0.157471,1.120117,2.248535
11.380237,-0.077148,0.373047,9.791992,-0.043701,1.242676,2.257324
11.389557,-0.098633,0.384766,9.787109,-0.026123,1.128906,2.301025
11.398878,-0.091797,0.394531,9.791016,-0.078613,1.216309,2.336182
11.408198,-0.108398,0.385742,9.790039,0.035156,1.163818,2.388672
11.417519,-0.127930,0.388672,9.770508,0.061279,1.225098,2.484863
11.426839,-0.162109,0.377930,9.819336,0.061279,1.286377,2.484863
11.436159,-0.129883,0.396484,9.786133,0.078857,1.242676,2.484863
11.445480,-0.200195,0.401367,9.811523,0.043945,1.216309,2.484863
11.454800,-0.170898,0.394531,9.816406,0.070068,1.181396,2.423584
11.464121,-0.172852,0.391602,9.775391,0.140137,1.207520,2.493652
11.473441,-0.242188,0.394531,9.834961,0.148926,1.312500,2.572266
11.482762,-0.167969,0.404297,9.790039,0.122559,1.198975,2.572266
11.492082,-0.204102,0.433594,9.792969,0.105225,1.225098,2.589844
11.501402,-0.254883,0.416992,9.810547,0.113770,1.286377,2.572266
11.510723,-0.250977,0.406250,9.807617,0.008789,1.216309,2.581055
11.520043,-0.221680,0.452148,9.810547,-0.008545,1.181396,2.581055
11.529364,-0.274414,0.453125,9.833984,0.008789,1.233887,2.659912
11.538684,-0.241211,0.455078,9.799805,-0.061035,1.216309,2.607422
11.548005,-0.295898,0.469727,9.823242,-0.026123,1.225098,2.511230
11.557325,-0.315430,0.468750,9.808594,-0.113525,1.216309,2.546143
11.566645,-0.300781,0.458984,9.791992,-0.061035,1.198975,2.589844
11.575966,-0.385742,0.496094,9.833008,-0.087402,1.277588,2.616211
11.585286,-0.368164,0.471680,9.800781,-0.131104,1.216309,2.546143
11.594607,-0.389648,0.455078,9.816406,-0.192383,1.268799,2.598633
11.603927,-0.437500,0.491211,9.824219,-0.174805,1.225098,2.659912
11.613248,-0.437500,0.529297,9.799805,-0.209961,1.268799,2.616211
11.622568,-0.504883,0.466797,9.797852,-0.253662,1.242676,2.546143
11.631888,-0.511719,0.500977,9.838867,-0.349854,1.268799,2.651123
11.641209,-0.502930,0.465820,9.779297,-0.393555,1.286377,2.703613
11.650529,-0.614258,0.479492,9.833008,-0.384766,1.382568,2.677246
11.659850,-0.564453,0.471680,9.791992,-0.402344,1.321289,2.729980
11.669170,-0.614258,0.473633,9.784180,-0.472412,1.356445,2.642334
11.678490,-0.651367,0.445312,9.830078,-0.568604,1.391357,2.747314
11.687811,-0.644531,0.455078,9.779297,-0.612305,1.321289,2.756104
11.697131,-0.699219,0.453125,9.795898,-0.559814,1.365234,2.764893
11.706452,-0.655273,0.408203,9.791992,-0.621094,1.365234,2.712402
11.715772,-0.712891,0.411133,9.767578,-0.559814,1.330078,2.756104
11.725093,-0.723633,0.421875,9.792969,-0.524902,1.391357,2.834961
11.734413,-0.703125,0.375000,9.736328,-0.629883,1.321289,2.834961
11.743733,-0.744141,0.374023,9.774414,-0.647461,1.365234,2.808594
11.753054,-0.729492,0.359375,9.796875,-0.594971,1.435059,2.887451
11.762374,-0.788086,0.358398,9.750000,-0.454834,1.312500,2.904785
11.771695,-0.769531,0.311523,9.774414,-0.411133,1.286377,2.887451
11.781015,-0.787109,0.330078,9.780273,-0.428711,1.242676,2.887451
11.790336,-0.812500,0.314453,9.749023,-0.367432,1.198975,2.869873
11.799656,-0.799805,0.293945,9.750000,-0.306152,1.225098,2.931152
11.808976,-0.866211,0.253906,9.738281,-0.218506,1.277588,2.904785
11.818297,-0.846680,0.285156,9.785156,-0.201172,1.242676,2.861084
11.827617,-0.844727,0.301758,9.715820,-0.183594,1.146484,2.852295
11.836938,-0.889648,0.277344,9.758789,-0.104980,1.172607,2.922363
11.846258,-0.880859,0.293945,9.749023,-0.131104,1.155029,2.887451
11.855579,-0.924805,0.273438,9.732422,-0.078613,1.146484,2.852295
11.864899,-0.908203,0.301758,9.743164,-0.008545,1.137695,2.817383
11.874219,-0.982422,0.303711,9.707031,-0.043701,1.102539,2.791016
11.883540,-0.971680,0.320312,9.765625,0.035156,1.128906,2.764893
11.892860,-0.990234,0.322266,9.721680,0.061279,1.128906,2.791016
11.902181,-1.029297,0.346680,9.751953,0.035156,1.128906,2.747314
11.911501,-1.004883,0.358398,9.742188,0.148926,1.102539,2.782471
11.920821,-1.084961,0.328125,9.712891,0.210205,1.146484,2.729980
11.930142,-1.047852,0.373047,9.770508,0.280029,1.242676,2.756104
11.939462,-1.095703,0.402344,9.694336,0.218750,1.233887,2.747314
11.948783,-1.133789,0.360352,9.727539,0.166260,1.251465,2.659912
11.958103,-1.109375,0.410156,9.708008,0.236328,1.295166,2.756104
11.967424,-1.163086,0.388672,9.737305,0.280029,1.400146,2.773682
11.976744,-1.155273,0.413086,9.758789,0.253906,1.426270,2.791016
11.986064,-1.176758,0.407227,9.662109,0.271484,1.470215,2.826172
11.995385,-1.186523,0.411133,9.770508,0.280029,1.583984,2.799805
12.004705,-1.192383,0.410156,9.712891,0.192627,1.540039,2.738525
12.014026,-1.266602,0.379883,9.731445,0.175049,1.601318,2.773682
12.023346,-1.234375,0.438477,9.728516,0.192627,1.610107,2.799805
12.032667,-1.264648,0.394531,9.732422,0.140137,1.741455,2.791016
12.041987,-1.276367,0.363281,9.789062,0.166260,1.767578,2.694824
12.051307,-1.282227,0.420898,9.723633,0.140137,1.688965,2.747314
12.060628,-1.324219,0.379883,9.795898,0.105225,1.741455,2.721191
12.069948,-1.253906,0.367188,9.770508,0.052734,1.688965,2.616211
12.079269,-1.307617,0.399414,9.775391,0.087646,1.662598,2.572266
12.088589,-1.239258,0.421875,9.808594,0.043945,1.601318,2.677246
12.097910,-1.277344,0.385742,9.799805,0.035156,1.645020,2.712402
12.107230,-1.222656,0.436523,9.854492,-0.017334,1.601318,2.721191
12.116550,-1.146484,0.436523,9.816406,-0.113525,1.531250,2.703613
12.125871,-1.185547,0.421875,9.833984,-0.069824,1.478760,2.712402
12.135191,-1.098633,0.434570,9.838867,-0.069824,1.356445,2.729980
12.144512,-1.078125,0.456055,9.847656,-0.078613,1.338867,2.721191
12.153832,-1.016602,0.427734,9.886719,-0.122314,1.277588,2.686035
12.163152,-0.967773,0.487305,9.832031,-0.113525,1.172607,2.651123
12.172473,-0.956055,0.475586,9.849609,-0.174805,1.058838,2.668701
12.181793,-0.893555,0.454102,9.875000,-0.279785,1.015137,2.729980
12.191114,-0.863281,0.447266,9.844727,-0.262451,0.997559,2.852295
12.200434,-0.802734,0.444336,9.830078,-0.262451,0.892578,2.782471
12.209755,-0.766602,0.442383,9.834961,-0.288574,0.875000,2.712402
12.219075,-0.739258,0.427734,9.817383,-0.236084,0.822510,2.782471
12.228395,-0.723633,0.473633,9.827148,-0.314941,0.761475,2.817383
12.237716,-0.695312,0.394531,9.815430,-0.393555,0.717529,2.799805
12.247036,-0.671875,0.423828,9.802734,-0.428711,0.665039,2.791016
12.256357,-0.624023,0.434570,9.811523,-0.437256,0.673828,2.782471
12.265677,-0.592773,0.410156,9.823242,-0.411133,0.682617,2.773682
12.274998,-0.580078,0.384766,9.839844,-0.446045,0.708984,2.756104
12.284318,-0.564453,0.426758,9.855469,-0.489990,0.700195,2.668701
12.293638,-0.566406,0.412109,9.806641,-0.629883,0.656250,2.712402
12.302959,-0.550781,0.404297,9.867188,-0.638672,0.682617,2.703613
12.312279,-0.570312,0.426758,9.854492,-0.594971,0.638916,2.642334
12.321600,-0.521484,0.423828,9.847656,-0.647461,0.665039,2.511230
12.330920,-0.505859,0.429688,9.847656,-0.743652,0.743896,2.537354
12.340241,-0.514648,0.429688,9.826172,-0.664795,0.691406,2.563721
12.349561,-0.480469,0.464844,9.830078,-0.647461,0.708984,2.537354
12.358881,-0.490234,0.431641,9.832031,-0.708740,0.743896,2.458496
12.368202,-0.490234,0.463867,9.865234,-0.664795,0.822510,2.502441
12.377522,-0.449219,0.437500,9.822266,-0.612305,0.787598,2.467285
12.386843,-0.484375,0.470703,9.858398,-0.682373,0.735107,2.563721
12.396163,-0.421875,0.476562,9.855469,-0.752441,0.761475,2.546143
12.405484,-0.451172,0.468750,9.833984,-0.699951,0.761475,2.554932
12.414804,-0.475586,0.438477,9.829102,-0.743652,0.813965,2.572266
12.424124,-0.452148,0.454102,9.827148,-0.743652,0.848877,2.563721
12.433445,-0.494141,0.436523,9.848633,-0.717285,0.805176,2.572266
12.442765,-0.417969,0.452148,9.806641,-0.726074,0.787598,2.633545
12.452086,-0.486328,0.441406,9.802734,-0.778564,0.778809,2.651123
12.461406,-0.449219,0.441406,9.824219,-0.761230,0.787598,2.703613
12.470726,-0.464844,0.434570,9.775391,-0.848633,0.822510,2.694824
12.480047,-0.507812,0.377930,9.792969,-0.901123,0.927734,2.659912
12.489367,-0.419922,0.415039,9.752930,-0.883545,0.857666,2.633545
12.498688,-0.481445,0.423828,9.765625,-0.883545,0.813965,2.668701
12.508008,-0.464844,0.395508,9.816406,-0.936035,0.761475,2.668701
12.517329,-0.500977,0.400391,9.695312,-0.997314,0.778809,2.677246
12.526649,-0.506836,0.422852,9.790039,-1.006104,0.883789,2.616211
12.535969,-0.499023,0.379883,9.684570,-0.927490,0.971436,2.528564
12.545290,-0.534180,0.386719,9.743164,-1.006104,0.875000,2.572266
12.554610,-0.540039,0.364258,9.749023,-1.006104,1.006348,2.563721
12.563931,-0.627930,0.363281,9.728516,-0.953613,0.953857,2.502441
12.573251,-0.539062,0.383789,9.738281,-1.006104,0.945068,2.458496
12.582572,-0.629883,0.355469,9.686523,-0.997314,1.032715,2.441162
12.591892,-0.650391,0.380859,9.789062,-0.953613,1.067627,2.292480
12.601212,-0.673828,0.355469,9.660156,-0.971191,1.120117,2.292480
12.610533,-0.656250,0.335938,9.737305,-0.997314,1.216309,2.379883
12.619853,-0.722656,0.333984,9.683594,-0.944824,1.286377,2.327393
12.629174,-0.758789,0.337891,9.759766,-0.944824,1.356445,2.362305
12.638494,-0.732422,0.306641,9.743164,-0.927490,1.286377,2.353516
12.647815,-0.830078,0.337891,9.775391,-0.918701,1.408936,2.309814
12.657135,-0.820312,0.278320,9.773438,-0.848633,1.365234,2.344971
12.666455,-0.871094,0.303711,9.737305,-0.752441,1.435059,2.283691
12.675776,-0.886719,0.284180,9.833008,-0.787354,1.522705,2.336182
12.685096,-0.926758,0.263672,9.762695,-0.752441,1.452637,2.283691
12.694417,-0.942383,0.241211,9.833008,-0.673584,1.470215,2.292480
12.703737,-0.950195,0.241211,9.731445,-0.516113,1.478760,2.336182
12.713057,-1.011719,0.230469,9.839844,-0.577393,1.505127,2.239990
12.722378,-1.020508,0.182617,9.791992,-0.586182,1.505127,2.301025
12.731698,-1.054688,0.237305,9.778320,-0.402344,1.522705,2.292480
12.741019,-1.085938,0.206055,9.801758,-0.384766,1.487549,2.187256
12.750339,-1.054688,0.192383,9.749023,-0.314941,1.470215,2.169922
12.759660,-1.121094,0.196289,9.843750,-0.244873,1.513916,2.283691
12.768980,-1.090820,0.192383,9.751953,-0.174805,1.461426,2.152344
12.778300,-1.155273,0.215820,9.795898,-0.122314,1.478760,2.082275
12.787621,-1.183594,0.222656,9.737305,-0.026123,1.408936,2.012451
12.796941,-1.160156,0.229492,9.790039,0.105225,1.435059,2.003662
12.806262,-1.220703,0.199219,9.759766,0.122559,1.408936,1.933594
12.815582,-1.226562,0.221680,9.754883,0.262695,1.391357,1.986084
12.824903,-1.255859,0.251953,9.728516,0.306396,1.391357,1.924805
12.834223,-1.257812,0.255859,9.780273,0.367676,1.426270,1.889893
12.843543,-1.300781,0.272461,9.711914,0.358887,1.408936,1.863525
12.852864,-1.312500,0.294922,9.810547,0.393799,1.487549,1.881104
12.862184,-1.335938,0.263672,9.728516,0.472656,1.373779,1.819824
12.871505,-1.375000,0.283203,9.791992,0.507568,1.426270,1.837402
12.880825,-1.362305,0.305664,9.751953,0.586426,1.452637,1.872314
12.890146,-1.428711,0.331055,9.773438,0.533936,1.487549,1.819824
12.899466,-1.414062,0.296875,9.752930,0.516357,1.452637,1.837402
12.908786,-1.401367,0.349609,9.769531,0.525146,1.470215,1.767334
12.918107,-1.459961,0.367188,9.850586,0.568848,1.505127,1.828613
12.927427,-1.418945,0.363281,9.705078,0.568848,1.452637,1.767334
12.936748,-1.502930,0.360352,9.848633,0.525146,1.601318,1.811035
12.946068,-1.451172,0.369141,9.741211,0.525146,1.505127,1.776123
12.955388,-1.493164,0.369141,9.833984,0.551270,1.505127,1.846191
12.964709,-1.514648,0.384766,9.755859,0.551270,1.540039,1.776123
12.974029,-1.514648,0.395508,9.837891,0.507568,1.557617,1.723633
12.983350,-1.558594,0.390625,9.808594,0.507568,1.548828,1.732422
12.992670,-1.513672,0.379883,9.833008,0.498779,1.566406,1.767334
13.001991,-1.552734,0.367188,9.810547,0.595215,1.575195,1.706055
13.011311,-1.572266,0.371094,9.773438,0.691406,1.478760,1.636230
13.020631,-1.552734,0.383789,9.821289,0.682617,1.470215,1.706055
13.029952,-1.595703,0.354492,9.759766,0.577637,1.452637,1.653564
13.039272,-1.534180,0.344727,9.854492,0.612549,1.408936,1.662354
13.048593,-1.592773,0.386719,9.797852,0.638916,1.382568,1.653564
13.057913,-1.551758,0.358398,9.854492,0.612549,1.373779,1.609863
13.067234,-1.558594,0.321289,9.822266,0.603760,1.347656,1.601074
13.076554,-1.558594,0.375977,9.823242,0.621338,1.295166,1.574951
13.085874,-1.560547,0.352539,9.842773,0.498779,1.260010,1.504883
13.095195,-1.501953,0.349609,9.751953,0.560059,1.181396,1.452393
13.104515,-1.521484,0.341797,9.890625,0.560059,1.172607,1.452393
13.113836,-1.483398,0.388672,9.768555,0.472656,0.988770,1.364990
13.123156,-1.484375,0.362305,9.843750,0.437500,0.953857,1.452393
13.132477,-1.458008,0.399414,9.805664,0.402588,0.901367,1.426025
13.141797,-1.455078,0.386719,9.812500,0.358887,0.857666,1.364990
13.151117,-1.422852,0.420898,9.826172,0.385010,0.796387,1.399902
13.160438,-1.365234,0.422852,9.792969,0.376465,0.700195,1.417480
13.169758,-1.413086,0.449219,9.919922,0.350098,0.612549,1.391113
13.179079,-1.351562,0.450195,9.808594,0.227539,0.516357,1.426025
13.188399,-1.350586,0.436523,9.849609,0.236328,0.463867,1.364990
13.197719,-1.287109,0.469727,9.832031,0.253906,0.498779,1.391113
13.207040,-1.258789,0.392578,9.784180,0.315186,0.393799,1.347412
13.216360,-1.239258,0.436523,9.845703,0.315186,0.367676,1.373535
13.225681,-1.181641,0.402344,9.765625,0.288818,0.297607,1.373535
13.235001,-1.202148,0.375000,9.848633,0.402588,0.236328,1.382324
13.244322,-1.088867,0.410156,9.805664,0.411377,0.210205,1.408691
13.253642,-1.189453,0.385742,9.805664,0.428955,0.183838,1.364990
13.262962,-1.085938,0.373047,9.847656,0.437500,0.131348,1.391113
13.272283,-1.064453,0.362305,9.823242,0.490234,0.131348,1.417480
13.281603,-1.058594,0.374023,9.892578,0.481445,0.148926,1.391113
13.290924,-0.955078,0.307617,9.800781,0.551270,0.035156,1.329834
13.300244,-0.995117,0.341797,9.822266,0.560059,0.070068,1.356201
13.309565,-0.942383,0.327148,9.849609,0.595215,0.043945,1.347412
13.318885,-0.934570,0.295898,9.800781,0.551270,0.008789,1.216064
13.328205,-0.943359,0.307617,9.808594,0.586426,0.000000,1.189941
13.337526,-0.880859,0.306641,9.743164,0.533936,-0.026123,1.172363
13.346846,-0.891602,0.285156,9.815430,0.560059,0.008789,1.076172
13.356167,-0.782227,0.333984,9.771484,0.673828,0.017578,1.084961
13.365487,-0.839844,0.351562,9.796875,0.673828,0.070068,1.084961
13.374808,-0.826172,0.375977,9.790039,0.726318,0.017578,1.014893
13.384128,-0.771484,0.371094,9.795898,0.638916,0.043945,1.006104
13.393448,-0.773438,0.404297,9.774414,0.708984,0.122559,0.988525
13.402769,-0.753906,0.410156,9.744141,0.708984,0.070068,0.962402
13.412089,-0.714844,0.436523,9.720703,0.761475,0.000000,1.023682
13.421410,-0.727539,0.444336,9.700195,0.700195,0.122559,0.979980
13.430730,-0.649414,0.485352,9.716797,0.726318,0.087646,0.962402
13.440050,-0.677734,0.471680,9.711914,0.761475,0.113770,1.014893
13.449371,-0.669922,0.498047,9.669922,0.840088,0.105225,0.988525
13.458691,-0.656250,0.547852,9.675781,0.787598,0.148926,1.006104
13.468012,-0.647461,0.540039,9.668945,0.743896,0.227539,1.032471
13.477332,-0.582031,0.541016,9.694336,0.708984,0.262695,1.032471
13.486653,-0.597656,0.538086,9.642578,0.665039,0.315186,1.032471
13.495973,-0.562500,0.554688,9.660156,0.542725,0.358887,1.032471
13.505293,-0.529297,0.577148,9.626953,0.507568,0.376465,1.014893
13.514614,-0.591797,0.581055,9.604492,0.463867,0.490234,1.093506
13.523934,-0.577148,0.615234,9.667969,0.341309,0.472656,1.084961
13.533255,-0.531250,0.581055,9.616211,0.166260,0.463867,0.979980
13.542575,-0.526367,0.582031,9.652344,0.087646,0.560059,0.971191
13.551896,-0.486328,0.604492,9.635742,-0.026123,0.542725,0.936035
13.561216,-0.597656,0.564453,9.704102,-0.201172,0.542725,0.909912
13.570536,-0.589844,0.555664,9.794922,-0.227295,0.595215,0.883545
13.579857,-0.582031,0.553711,9.743164,-0.323730,0.560059,0.831055
13.589177,-0.623047,0.558594,9.867188,-0.306152,0.603760,0.708740
13.598498,-0.682617,0.584961,9.827148,-0.341064,0.533936,0.726074
13.607818,-0.730469,0.617188,9.926758,-0.271240,0.542725,0.813721
13.617139,-0.701172,0.643555,9.945312,-0.349854,0.472656,0.796143
13.626459,-0.708008,0.619141,9.918945,-0.454834,0.402588,0.787354
13.635779,-0.743164,0.540039,10.036133,-0.542480,0.455078,0.813721
13.645100,-0.809570,0.530273,9.961914,-0.594971,0.367676,0.874756
13.654420,-0.770508,0.515625,10.079102,-0.481201,0.306396,0.909912
13.663741,-0.690430,0.423828,10.001953,-0.568604,0.236328,0.901123
13.673061,-0.770508,0.420898,10.071289,-0.411133,0.183838,0.857422
13.682382,-0.702148,0.423828,10.072266,-0.253662,0.140137,0.909912
13.691702,-0.696289,0.343750,10.033203,-0.192383,0.052734,0.866211
13.701022,-0.679688,0.335938,10.081055,-0.192383,0.043945,0.839844
13.710343,-0.651367,0.335938,9.948242,-0.122314,-0.061035,0.831055
13.719663,-0.639648,0.296875,10.003906,0.000000,-0.078613,0.813721
13.728984,-0.592773,0.294922,9.884766,-0.008545,-0.061035,0.787354
13.738304,-0.617188,0.255859,9.929688,0.052734,-0.131104,0.787354
13.747624,-0.548828,0.235352,9.856445,0.061279,-0.113525,0.743652
13.756945,-0.584961,0.205078,9.784180,0.157715,-0.078613,0.664795
13.766265,-0.532227,0.235352,9.823242,0.236328,-0.052490,0.682373
13.775586,-0.547852,0.227539,9.742188,0.271484,-0.008545,0.612305
13.784906,-0.507812,0.187500,9.791016,0.280029,0.043945,0.568604
13.794227,-0.538086,0.236328,9.707031,0.341309,0.122559,0.516113
13.803547,-0.531250,0.277344,9.725586,0.542725,0.183838,0.489990
13.812867,-0.525391,0.243164,9.689453,0.630127,0.236328,0.481201
13.822188,-0.500000,0.256836,9.648438,0.787598,0.306396,0.489990
13.831508,-0.518555,0.306641,9.678711,0.953857,0.385010,0.472412
13.840829,-0.529297,0.274414,9.615234,1.041260,0.428955,0.393555
13.850149,-0.515625,0.293945,9.681641,1.242676,0.525146,0.489990
13.859470,-0.516602,0.332031,9.573242,1.426270,0.525146,0.472412
13.868790,-0.500977,0.290039,9.632812,1.566406,0.647705,0.402344
13.878110,-0.583984,0.331055,9.622070,1.697510,0.665039,0.463623
13.887431,-0.653320,0.377930,9.755859,1.837646,0.726318,0.542480
13.896751,-0.758789,0.413086,9.843750,1.855225,0.778809,0.507324
13.906072,-0.709961,0.443359,9.889648,1.715088,0.726318,0.446045
13.915392,-0.791016,0.502930,9.903320,1.662598,0.717529,0.393555
13.924713,-0.802734,0.423828,9.847656,1.522705,0.586426,0.332275
13.934033,-0.821289,0.522461,9.877930,1.496338,0.551270,0.297363
13.943353,-0.835938,0.619141,9.935547,1.365234,0.516357,0.323730
13.952674,-0.788086,0.705078,10.045898,1.146484,0.533936,0.271240
13.961994,-0.865234,0.746094,10.073242,0.892578,0.428955,0.262451
13.971315,-0.828125,0.832031,10.045898,0.726318,0.323975,0.288574
13.980635,-0.815430,0.814453,9.992188,0.455078,0.192627,0.341064
13.989955,-0.806641,0.740234,9.969727,0.376465,0.157715,0.341064
13.999276,-0.749023,0.792969,9.830078,0.271484,0.026367,0.367432
14.008596,-0.791992,0.830078,9.906250,0.210205,0.078857,0.376221
14.017917,-0.810547,0.800781,9.939453,0.140137,0.008789,0.332275
14.027237,-0.717773,0.782227,9.844727,0.166260,-0.026123,0.306152
14.036558,-0.777344,0.790039,9.837891,0.078857,0.026367,0.332275
14.045878,-0.743164,0.707031,9.805664,-0.008545,0.017578,0.358643
14.055198,-0.767578,0.666992,9.815430,-0.052490,0.035156,0.244873
14.064519,-0.725586,0.646484,9.827148,-0.096191,0.043945,0.236084
14.073839,-0.791992,0.648438,9.813477,-0.209961,0.070068,0.218506
14.083160,-0.739258,0.558594,9.806641,-0.253662,0.061279,0.157471
14.092480,-0.793945,0.577148,9.811523,-0.314941,0.061279,0.069824
14.101801,-0.766602,0.540039,9.770508,-0.586182,0.078857,0.069824
14.111121,-0.792969,0.528320,9.767578,-0.778564,0.166260,-0.070068
14.120441,-0.784180,0.479492,9.806641,-0.857422,0.192627,-0.070068
14.129762,-0.803711,0.500977,9.737305,-1.014893,0.148926,-0.131348
14.139082,-0.789062,0.469727,9.787109,-1.154785,0.175049,-0.166260
14.148403,-0.784180,0.448242,9.776367,-1.251221,0.166260,-0.096436
14.157723,-0.802734,0.510742,9.773438,-1.399902,0.236328,-0.166260
14.167044,-0.833984,0.474609,9.749023,-1.426025,0.218750,-0.148926
14.176364,-0.825195,0.460938,9.725586,-1.461182,0.332520,-0.175049
14.185684,-0.843750,0.450195,9.754883,-1.496094,0.367676,-0.192627
14.195005,-0.812500,0.459961,9.785156,-1.443604,0.315186,-0.218750
14.204325,-0.847656,0.432617,9.708008,-1.391113,0.411377,-0.218750
14.213646,-0.799805,0.482422,9.696289,-1.277344,0.437500,-0.218750
14.222966,-0.838867,0.455078,9.731445,-1.286133,0.542725,-0.157715
14.232286,-0.798828,0.470703,9.712891,-1.233643,0.507568,-0.131348
14.241607,-0.791992,0.425781,9.666992,-1.216064,0.525146,-0.175049
14.250927,-0.775391,0.474609,9.695312,-1.259766,0.603760,-0.140137
14.260248,-0.788086,0.442383,9.701172,-1.277344,0.665039,-0.166260
14.269568,-0.713867,0.417969,9.686523,-1.251221,0.542725,-0.210205
14.278889,-0.701172,0.412109,9.614258,-1.216064,0.595215,-0.245117
14.288209,-0.701172,0.453125,9.625000,-1.277344,0.665039,-0.271484
14.297529,-0.680664,0.443359,9.563477,-1.522461,0.700195,-0.288818
14.306850,-0.656250,0.455078,9.583008,-1.539795,0.778809,-0.306396
14.316170,-0.692383,0.516602,9.545898,-1.671143,0.831299,-0.411377
14.325491,-0.600586,0.521484,9.529297,-1.924805,0.875000,-0.455078
14.334811,-0.621094,0.511719,9.526367,-2.134766,0.997559,-0.525146
14.344132,-0.617188,0.578125,9.492188,-2.274902,0.971436,-0.577637
14.353452,-0.605469,0.587891,9.463867,-2.476074,1.067627,-0.568848
14.362772,-0.591797,0.569336,9.459961,-2.747314,1.198975,-0.638916
14.372093,-0.570312,0.611328,9.439453,-2.913574,1.277588,-0.682617
14.381413,-0.537109,0.624023,9.468750,-3.001221,1.347656,-0.708984
14.390734,-0.550781,0.629883,9.452148,-3.097412,1.373779,-0.717529
14.400054,-0.597656,0.625000,9.487305,-3.228516,1.426270,-0.717529
14.409375,-0.549805,0.607422,9.420898,-3.394775,1.513916,-0.787598
14.418695,-0.540039,0.534180,9.479492,-3.482422,1.566406,-0.752686
14.428015,-0.575195,0.538086,9.405273,-3.526123,1.575195,-0.875000
14.437336,-0.540039,0.460938,9.461914,-3.578613,1.645020,-0.840088
14.446656,-0.528320,0.456055,9.397461,-3.561035,1.618896,-0.971436
14.455977,-0.521484,0.360352,9.470703,-3.604980,1.732666,-0.953857
14.465297,-0.542969,0.320312,9.459961,-3.596191,1.767578,-0.971436
14.474617,-0.538086,0.307617,9.502930,-3.736084,1.723877,-1.032715
14.483938,-0.587891,0.203125,9.478516,-3.814941,1.828857,-1.137695
14.493258,-0.538086,0.210938,9.494141,-3.762451,1.863770,-1.207520
14.502579,-0.525391,0.118164,9.473633,-3.884766,1.898926,-1.251465
14.511899,-0.558594,0.105469,9.580078,-3.998535,1.933838,-1.365234
14.521220,-0.571289,0.029297,9.497070,-4.059814,1.820068,-1.426270
14.530540,-0.540039,0.033203,9.556641,-3.989746,1.855225,-1.505127
14.539860,-0.587891,-0.036133,9.532227,-4.164795,1.916260,-1.653809
14.549181,-0.570312,-0.049805,9.571289,-4.103516,1.933838,-1.776367
14.558501,-0.506836,-0.066406,9.500000,-4.077393,1.933838,-1.837646
14.567822,-0.526367,-0.140625,9.571289,-4.103516,1.995117,-1.863770
14.577142,-0.481445,-0.091797,9.492188,-4.042480,2.012695,-2.021484
14.586463,-0.521484,-0.132812,9.552734,-3.963623,2.117676,-2.082520
14.595783,-0.516602,-0.181641,9.513672,-3.919922,2.152588,-2.152588
14.605103,-0.484375,-0.169922,9.485352,-3.744873,2.170166,-2.301270
14.614424,-0.427734,-0.208984,9.504883,-3.464844,2.310059,-2.301270
14.623744,-0.395508,-0.247070,9.444336,-3.342285,2.450195,-2.450195
14.633065,-0.341797,-0.210938,9.363281,-3.036133,2.625000,-2.476318
14.642385,-0.326172,-0.291992,9.334961,-2.913574,2.721436,-2.476318
14.651706,-0.250977,-0.400391,9.317383,-2.668701,2.835205,-2.590088
14.661026,-0.248047,-0.389648,9.261719,-2.327393,2.992676,-2.625000
14.670346,-0.230469,-0.500977,9.238281,-2.082275,3.132568,-2.791260
14.679667,-0.223633,-0.514648,9.202148,-1.758545,3.281250,-2.931396
14.688987,-0.187500,-0.587891,9.237305,-1.539795,3.535156,-3.010010
14.698308,-0.212891,-0.569336,9.178711,-1.286133,3.622559,-3.114990
14.707628,-0.335938,-0.708008,9.224609,-1.119873,3.867676,-3.237549
14.716948,-0.334961,-0.684570,9.208008,-0.909912,4.086426,-3.491455
14.726269,-0.361328,-0.712891,9.276367,-0.594971,4.287598,-3.622559
14.735589,-0.391602,-0.675781,9.277344,-0.376221,4.471436,-3.841309
14.744910,-0.345703,-0.773438,9.302734,-0.183594,4.620117,-4.016357
14.754230,-0.367188,-0.599609,9.445312,0.096436,4.812500,-4.226318
14.763551,-0.422852,-0.559570,9.470703,0.052734,4.882568,-4.375000
14.772871,-0.468750,-0.734375,9.500977,0.078857,4.996338,-4.611328
14.782191,-0.654297,-0.618164,9.830078,0.262695,5.127686,-4.821289
14.791512,-0.882812,-0.510742,10.079102,0.603760,5.171387,-4.952637
14.800832,-0.925781,-0.422852,10.022461,1.032715,5.031250,-5.136230
14.810153,-1.142578,-0.558594,10.211914,1.435059,5.153809,-5.005127
14.819473,-1.216797,-0.433594,10.250977,2.021484,4.961426,-4.961426
14.828794,-1.216797,-0.361328,10.283203,2.607666,4.838867,-4.891357
14.838114,-1.227539,-0.384766,10.344727,3.193848,4.777588,-4.803955
14.847434,-1.335938,-0.505859,10.650391,3.780029,4.628906,-4.803955
14.856755,-1.360352,-0.554688,10.688477,4.532715,4.375000,-4.742676
14.866075,-1.329102,-0.512695,10.841797,5.320068,4.191406,-4.690186
14.875396,-1.386719,-0.693359,10.797852,5.880127,3.867676,-4.768799
14.884716,-1.334961,-0.322266,10.730469,6.536377,3.526367,-4.847656
14.894037,-1.290039,-0.583984,10.512695,6.833740,3.430176,-4.716309
14.903357,-1.422852,-0.298828,10.779297,7.043945,3.307617,-4.917480
14.912677,-1.366211,-0.627930,10.852539,7.350098,2.975098,-4.742676
14.921998,-1.361328,-0.354492,10.941406,7.577637,2.633789,-5.031250
14.931318,-1.460938,-0.457031,10.940430,7.630127,2.266357,-5.040039
14.940639,-1.494141,-0.340820,10.937500,7.551270,1.942627,-5.188965
14.949959,-1.470703,-0.104492,10.815430,7.472656,1.540039,-5.250000
14.959280,-1.413086,-0.208008,10.615234,7.245117,1.216309,-5.503906
14.968600,-1.460938,0.041992,10.609375,7.227539,1.023926,-5.608887
14.977920,-1.342773,0.028320,10.565430,7.157471,0.735107,-5.608887
14.987241,-1.343750,0.235352,10.548828,7.000000,0.551270,-5.853760
14.996561,-1.311523,0.232422,10.482422,6.816406,0.315186,-5.897705
15.005882,-1.386719,0.498047,10.368164,6.719971,0.061279,-5.967529
15.015202,-1.301758,0.416992,10.264648,6.597656,-0.069824,-6.020020
15.024522,-1.270508,0.608398,10.200195,6.536377,-0.087402,-6.055176
15.033843,-1.366211,0.649414,10.262695,6.492676,-0.061035,-6.046387
15.043163,-1.212891,0.666016,10.033203,6.352539,-0.227295,-6.142578
15.052484,-1.249023,0.597656,10.041992,6.326416,-0.262451,-6.133789
15.061804,-1.268555,0.704102,10.081055,6.195068,-0.332275,-6.168945
15.071125,-1.340820,0.820312,10.029297,6.046387,-0.411133,-6.195068
15.080445,-1.560547,0.772461,10.227539,5.643799,-0.341064,-6.203857
15.089765,-1.359375,0.848633,10.093750,5.188965,-0.594971,-6.335205
15.099086,-1.523438,0.933594,10.245117,4.672607,-0.629883,-6.352539
15.108406,-1.476562,0.837891,10.166016,4.095215,-0.874756,-6.352539
15.117727,-1.558594,0.951172,10.152344,3.622559,-0.988525,-6.510010
15.127047,-1.580078,0.972656,10.129883,3.114990,-1.137451,-6.466309
15.136368,-1.512695,1.121094,10.352539,2.406250,-1.303711,-6.510010
15.145688,-1.582031,1.022461,10.385742,1.653809,-1.583740,-6.483887
15.155008,-1.409180,1.439453,10.285156,1.041260,-1.898682,-6.352539
15.164329,-1.536133,1.158203,10.266602,0.210205,-2.073730,-6.300049
15.173649,-1.482422,0.901367,10.146484,-0.437256,-2.327393,-6.396240
15.182970,-1.312500,0.993164,9.978516,-0.796143,-2.458496,-6.317627
15.192290,-1.375977,1.037109,10.068359,-1.102295,-2.528564,-6.317627
15.201611,-1.356445,0.937500,9.974609,-1.496094,-2.799805,-6.308838
15.210931,-1.238281,0.723633,9.937500,-1.697266,-2.904785,-6.221436
15.220251,-1.268555,0.868164,9.866211,-1.706055,-2.966064,-6.265137
15.229572,-1.254883,0.421875,9.917969,-1.986084,-2.983643,-6.326416
15.238892,-1.139648,0.570312,9.808594,-1.811035,-3.044922,-6.492676
15.248213,-1.252930,0.290039,9.780273,-1.776123,-2.966064,-6.387695
15.257533,-1.167969,0.395508,9.779297,-1.907471,-3.062256,-6.667480
15.266853,-1.062500,0.026367,9.732422,-1.907471,-3.106201,-6.623779
15.276174,-1.146484,0.023438,9.770508,-1.741211,-3.044922,-6.921387
15.285494,-1.072266,-0.093750,9.622070,-1.767334,-3.044922,-7.166260
15.294815,-1.038086,-0.244141,9.617188,-1.784912,-2.974854,-7.280029
15.304135,-1.030273,-0.218750,9.589844,-1.776123,-2.869873,-7.446289
15.313456,-1.005859,-0.318359,9.612305,-1.714844,-2.895996,-7.533936
15.322776,-1.022461,-0.477539,9.721680,-1.653564,-2.738525,-7.840088
15.332096,-0.941406,-0.417969,9.582031,-1.539795,-2.808594,-7.831299
15.341417,-0.977539,-0.411133,9.709961,-1.566162,-2.694824,-7.918945
15.350737,-0.899414,-0.540039,9.536133,-1.452393,-2.633545,-8.181396
15.360058,-1.014648,-0.532227,9.583984,-1.163574,-2.537354,-8.216309
15.369378,-0.928711,-0.424805,9.582031,-0.962402,-2.423584,-8.216309
15.378699,-0.908203,-0.577148,9.649414,-0.909912,-2.336182,-8.330078
15.388019,-0.898438,-0.477539,9.728516,-0.577393,-2.309814,-8.400146
15.397339,-0.858398,-0.306641,9.605469,-0.358643,-2.283691,-8.417480
15.406660,-0.999023,-0.407227,9.631836,-0.148682,-2.187256,-8.443848
15.415980,-0.903320,-0.449219,9.739258,0.140137,-2.047363,-8.583740
15.425301,-0.814453,-0.298828,9.679688,0.533936,-2.047363,-8.522705
15.434621,-0.928711,-0.212891,9.755859,0.822510,-1.942383,-8.487549
15.443942,-0.836914,-0.287109,9.663086,1.032715,-1.854980,-8.540039
15.453262,-0.873047,-0.372070,9.727539,1.260010,-1.776123,-8.487549
15.462582,-0.852539,-0.023438,9.742188,1.583984,-1.784912,-8.575195
15.471903,-0.789062,-0.348633,9.658203,1.618896,-1.802490,-8.680176
15.481223,-0.868164,-0.107422,9.819336,1.968750,-1.749756,-8.776367
15.490544,-0.808594,-0.274414,9.751953,1.986328,-1.837402,-8.758789
15.499864,-0.786133,0.025391,9.785156,2.108887,-1.784912,-8.933838
15.509184,-0.797852,-0.097656,9.839844,2.030029,-1.723633,-8.916260
15.518505,-0.788086,-0.083008,9.782227,1.916260,-1.846191,-9.135010
15.527825,-0.777344,-0.018555,9.786133,1.785156,-1.916016,-9.318848
15.537146,-0.788086,0.018555,9.779297,1.662598,-1.881104,-9.485107
15.546466,-0.791016,0.026367,9.839844,1.496338,-1.933594,-9.712646
15.555787,-0.823242,-0.058594,9.700195,1.338867,-2.038574,-9.834961
15.565107,-0.740234,0.077148,9.786133,1.260010,-2.047363,-10.036377
15.574427,-0.744141,0.209961,9.808594,1.058838,-2.169922,-10.325195
15.583748,-0.833008,0.111328,9.837891,0.805176,-2.266113,-10.578857
15.593068,-0.676758,0.034180,9.718750,0.621338,-2.432373,-10.797607
15.602389,-0.750977,0.288086,9.804688,0.525146,-2.502441,-10.911377
15.611709,-0.698242,0.107422,9.829102,0.271484,-2.572266,-11.016357
15.621030,-0.707031,0.231445,9.787109,0.105225,-2.703613,-11.199951
15.630350,-0.747070,0.063477,9.871094,0.096436,-2.694824,-11.103760
15.639670,-0.769531,0.177734,9.909180,0.052734,-2.677246,-11.278809
15.648991,-0.629883,0.050781,9.779297,-0.052490,-2.659912,-11.322510
15.658311,-0.792969,0.013672,9.876953,-0.061035,-2.607422,-11.331299
15.667632,-0.603516,0.013672,9.773438,0.131348,-2.624756,-11.305176
15.676952,-0.619141,-0.177734,9.969727,0.192627,-2.432373,-11.287598
15.686273,-0.747070,-0.088867,9.907227,0.420166,-2.318604,-11.322510
15.695593,-0.552734,-0.176758,9.789062,0.560059,-2.283691,-11.375000
15.704913,-0.728516,-0.285156,9.893555,0.673828,-2.091064,-11.383789
15.714234,-0.699219,-0.166016,9.834961,0.840088,-1.951172,-11.383789
15.723554,-0.746094,-0.229492,9.867188,0.822510,-1.889893,-11.488770
15.732875,-0.756836,-0.330078,9.864258,0.708984,-1.714844,-11.637451
15.742195,-0.793945,-0.240234,9.797852,0.673828,-1.566162,-11.760010
15.751515,-0.844727,-0.330078,9.856445,0.630127,-1.443604,-11.856201
15.760836,-0.840820,-0.262695,9.941406,0.411377,-1.434814,-12.066406
15.770156,-0.833984,-0.361328,9.815430,0.516357,-1.382324,-12.048828
15.779477,-0.836914,-0.147461,9.916992,0.463867,-1.286133,-12.267578
15.788797,-0.833008,-0.361328,9.807617,0.446289,-1.268555,-12.320068
15.798118,-0.796875,-0.188477,9.889648,0.516357,-1.146240,-12.530029
15.807438,-0.770508,-0.291992,9.887695,0.516357,-1.084961,-12.670166
15.816758,-0.709961,-0.298828,9.855469,0.743896,-1.058594,-12.783936
15.826079,-0.802734,-0.129883,9.836914,0.918945,-0.997314,-12.958740
15.835399,-0.751953,-0.244141,9.781250,1.058838,-1.006104,-13.090088
15.844720,-0.725586,-0.077148,9.839844,1.102539,-0.997314,-13.247559
15.854040,-0.681641,-0.237305,9.828125,1.102539,-1.032471,-13.229980
15.863361,-0.814453,-0.041016,9.832031,1.338867,-0.988525,-13.413818
15.872681,-0.716797,-0.125000,9.739258,1.391357,-1.049805,-13.343750
15.882001,-0.741211,-0.102539,9.790039,1.443848,-1.014893,-13.431396
15.891322,-0.733398,-0.091797,9.758789,1.461426,-1.058594,-13.448730
15.900642,-0.734375,-0.087891,9.833008,1.505127,-1.128662,-13.475098
15.909963,-0.707031,-0.064453,9.689453,1.505127,-1.181152,-13.431396
15.919283,-0.706055,-0.093750,9.739258,1.417725,-1.233643,-13.553711
15.928604,-0.661133,-0.083008,9.670898,1.417725,-1.399902,-13.597656
15.937924,-0.676758,-0.143555,9.737305,1.303955,-1.364990,-13.571289
15.947244,-0.665039,-0.095703,9.664062,1.181396,-1.417480,-13.623779
15.956565,-0.675781,-0.139648,9.617188,1.207520,-1.531006,-13.641357
15.965885,-0.685547,-0.092773,9.664062,1.041260,-1.557373,-13.702637
15.975206,-0.733398,-0.186523,9.750000,0.953857,-1.636230,-13.790039
15.984526,-0.722656,-0.124023,9.580078,0.831299,-1.793701,-13.816406
15.993846,-0.775391,-0.081055,9.680664,0.673828,-1.714844,-13.868896
16.003167,-0.803711,-0.145508,9.732422,0.446289,-1.697266,-14.175049
16.012487,-0.806641,-0.250000,9.711914,0.446289,-1.688721,-14.314941
16.021808,-0.815430,-0.084961,9.688477,0.446289,-1.697266,-14.393799
16.031128,-0.863281,-0.223633,9.780273,0.271484,-1.671143,-14.682617
16.040449,-0.746094,-0.103516,9.760742,0.245117,-1.627441,-14.813721
16.049769,-0.745117,-0.165039,9.869141,0.175049,-1.452393,-14.971191
16.059089,-0.693359,-0.053711,9.786133,0.052734,-1.566162,-15.233887
16.068410,-0.728516,-0.109375,9.819336,0.052734,-1.487305,-15.330078
16.077730,-0.687500,-0.136719,9.822266,-0.096191,-1.399902,-15.435059
16.087051,-0.631836,-0.065430,9.773438,-0.078613,-1.469971,-15.592529
16.096371,-0.711914,-0.077148,9.872070,-0.201172,-1.399902,-15.610107
16.105692,-0.597656,-0.104492,9.669922,-0.262451,-1.557373,-15.802490
16.115012,-0.762695,-0.096680,9.897461,-0.262451,-1.434814,-15.872559
16.124332,-0.579102,-0.087891,9.694336,-0.411133,-1.662354,-15.977539
16.133653,-0.695312,-0.040039,9.715820,-0.699951,-1.662354,-16.038818
16.142973,-0.684570,-0.078125,9.789062,-0.909912,-1.811035,-16.100098
16.152294,-0.642578,-0.044922,9.702148,-1.268555,-1.951172,-16.283691
16.161614,-0.691406,-0.067383,9.755859,-1.592285,-2.091064,-16.275146
16.170935,-0.676758,-0.103516,9.654297,-1.959961,-2.371094,-16.397461
16.180255,-0.660156,-0.133789,9.642578,-2.266113,-2.589844,-16.572510
16.189575,-0.703125,-0.039062,9.638672,-2.598633,-2.764893,-16.616211
16.198896,-0.741211,-0.091797,9.663086,-3.044922,-3.027344,-16.738770
16.208216,-0.661133,-0.087891,9.646484,-3.386230,-3.307373,-16.957520
16.217537,-0.687500,-0.175781,9.638672,-3.718506,-3.534912,-17.123779
16.226857,-0.693359,-0.047852,9.630859,-3.981201,-3.718506,-17.281250
16.236178,-0.627930,-0.210938,9.678711,-4.383545,-3.981201,-17.438721
16.245498,-0.633789,-0.166016,9.629883,-4.584961,-4.191162,-17.613770
16.254818,-0.681641,-0.240234,9.707031,-4.829834,-4.418701,-17.780029
16.264139,-0.542969,-0.263672,9.691406,-4.996094,-4.689941,-17.998779
16.273459,-0.596680,-0.182617,9.706055,-5.092285,-4.759766,-18.199951
16.282780,-0.523438,-0.378906,9.583008,-5.346191,-4.908691,-18.392578
16.292100,-0.542969,-0.293945,9.623047,-5.311035,-5.013672,-18.576172
16.301420,-0.506836,-0.272461,9.677734,-5.468506,-5.039795,-18.733887
16.310741,-0.433594,-0.428711,9.614258,-5.652344,-5.188721,-18.864990
16.320061,-0.541992,-0.294922,9.732422,-5.678711,-5.223633,-18.943848
16.329382,-0.437500,-0.454102,9.632812,-5.862305,-5.249756,-19.022461
16.338702,-0.428711,-0.407227,9.598633,-5.967285,-5.197266,-19.197510
16.348023,-0.417969,-0.412109,9.715820,-6.124756,-5.153564,-19.197510
16.357343,-0.432617,-0.394531,9.675781,-6.133545,-5.144775,-19.267578
16.366663,-0.367188,-0.473633,9.690430,-6.221191,-5.074951,-19.311279
16.375984,-0.313477,-0.390625,9.686523,-6.221191,-5.022461,-19.258789
16.385304,-0.387695,-0.486328,9.823242,-6.177246,-4.961182,-19.311279
16.394625,-0.335938,-0.428711,9.775391,-6.151123,-4.969971,-19.285156
16.403945,-0.283203,-0.490234,9.743164,-6.054932,-4.856201,-19.223877
16.413266,-0.214844,-0.553711,9.710938,-5.976074,-4.838623,-19.250000
16.422586,-0.322266,-0.569336,9.819336,-5.853516,-4.689941,-19.101318
16.431906,-0.194336,-0.574219,9.741211,-5.687256,-4.689941,-19.040039
16.441227,-0.269531,-0.599609,9.748047,-5.486084,-4.558594,-19.040039
16.450547,-0.269531,-0.733398,9.747070,-5.442383,-4.462402,-19.083740
16.459868,-0.225586,-0.642578,9.811523,-5.197266,-4.462402,-19.145020
16.469188,-0.304688,-0.627930,9.802734,-5.004883,-4.357422,-18.996338
16.478509,-0.305664,-0.926758,9.940430,-4.978516,-4.199951,-19.005127
16.487829,-0.452148,-1.042969,10.102539,-4.479980,-4.007324,-18.900146
16.497149,-0.334961,-0.873047,10.055664,-3.806152,-3.823730,-18.786377
16.506470,-0.709961,-1.122070,10.087891,-3.088623,-3.202393,-18.637451
16.515790,-0.125000,-1.311523,10.121094,-2.301025,-2.939941,-18.488770
16.525111,-0.208984,-1.477539,10.402344,-1.294922,-2.283691,-18.410156
16.534431,-0.501953,-1.279297,10.613281,-0.113525,-1.819824,-18.278809
16.543751,-0.398438,-1.227539,10.166016,0.936279,-1.522461,-18.261230
16.553072,-0.584961,-1.532227,10.484375,1.898926,-0.787354,-18.199951
16.562392,-0.342773,-1.414062,10.437500,2.931396,-0.419922,-17.946289
16.571713,-0.571289,-1.167969,10.453125,3.675049,0.078857,-17.814941
16.581033,-0.546875,-1.144531,10.263672,4.208740,0.288818,-17.814941
16.590354,-0.448242,-1.478516,10.463867,4.550049,0.612549,-17.797607
16.599674,-0.733398,-1.234375,10.464844,5.171387,0.936279,-17.771240
16.608994,-0.511719,-1.109375,10.310547,5.425049,0.997559,-17.797607
16.618315,-0.699219,-1.226562,10.222656,5.565186,1.365234,-17.806396
16.627635,-0.501953,-1.014648,10.243164,5.652588,1.347656,-17.867432
16.636956,-0.507812,-1.021484,10.131836,5.582520,1.461426,-17.937500
16.646276,-0.465820,-0.878906,10.099609,5.372559,1.382568,-18.199951
16.655597,-0.538086,-0.651367,10.004883,5.188965,1.303955,-18.235107
16.664917,-0.380859,-0.529297,9.935547,4.900146,1.303955,-18.304932
16.674237,-0.515625,-0.555664,10.017578,4.777588,1.128906,-18.479980
16.683558,-0.433594,-0.330078,9.940430,4.768799,0.901367,-18.593750
16.692878,-0.269531,-0.130859,9.909180,4.672607,0.682617,-18.698730
16.702199,-0.391602,-0.191406,9.847656,4.515137,0.455078,-18.760010
16.711519,-0.226562,0.070312,9.760742,4.541260,0.096436,-18.864990
16.720840,-0.230469,0.116211,9.839844,4.462646,-0.174805,-18.821289
16.730160,-0.167969,-0.113281,9.757812,4.270020,-0.533691,-18.952637
16.739480,-0.138672,-0.059570,9.706055,4.453857,-0.892334,-18.900146
16.748801,-0.084961,-0.102539,9.616211,4.567627,-1.277344,-18.803711
16.758121,-0.018555,-0.056641,9.541992,4.497559,-1.697266,-18.969971
16.767442,-0.038086,-0.209961,9.424805,4.410156,-2.038574,-18.830078
16.776762,-0.087891,-0.154297,9.455078,4.471436,-2.292480,-18.751221
16.786082,-0.029297,-0.236328,9.405273,4.348877,-2.659912,-18.725098
16.795403,-0.058594,-0.389648,9.319336,4.217529,-2.799805,-18.655029
16.804723,-0.162109,-0.329102,9.392578,4.156250,-3.001221,-18.506348
16.814044,-0.066406,-0.497070,9.424805,4.077637,-3.272461,-18.453857
16.823364,-0.075195,-0.605469,9.478516,3.955078,-3.447266,-18.427490
16.832685,-0.043945,-0.829102,9.207031,3.780029,-3.692383,-18.366211
16.842005,-0.028320,-0.813477,9.276367,3.806396,-3.692383,-18.331299
16.851325,-0.088867,-0.977539,9.381836,3.762695,-3.788574,-18.366211
16.860646,-0.081055,-0.937500,9.360352,3.797607,-3.911133,-18.366211
16.869966,-0.013672,-1.228516,9.366211,3.815186,-3.937256,-18.357422
16.879287,-0.012695,-0.980469,9.373047,3.946289,-3.858643,-18.576172
